Index,Time(us), GyroX , GyroY , GyroZ ,AccX , AccY , AccZ , MagX , MagY , MagZ
1, 0.000000,-0.001678, 0.008728, -0.017090,-0.015717, -0.023590, -0.254120,0.063293, 0.112579, -0.092834
2, 10000.000000,-0.001678, 0.008728, -0.017090,-0.016296, -0.023590, -0.254120,0.063293, 0.112579, -0.092834
3, 20000.000000,-0.002563, 0.008362, -0.017761,-0.016296, -0.023590, -0.254120,0.063293, 0.112579, -0.092834
4, 30000.000000,-0.002563, 0.008362, -0.017761,-0.016296, -0.022278, -0.258789,0.064941, 0.113953, -0.093323
5, 40000.000000,-0.001740, 0.009460, -0.017731,-0.015961, -0.022278, -0.258789,0.064941, 0.113953, -0.093323
6, 50000.000000,-0.001740, 0.009460, -0.017731,-0.015961, -0.022278, -0.258789,0.064941, 0.113953, -0.093323
7, 60000.000000,-0.000732, 0.009003, -0.015717,-0.015961, -0.022278, -0.258789,0.064941, 0.113953, -0.093323
8, 70000.000000,-0.000732, 0.009003, -0.015717,-0.015961, -0.022278, -0.258789,0.064941, 0.113953, -0.093323
9, 80000.000000,-0.000732, 0.009003, -0.017487,-0.015594, -0.022797, -0.254303,0.063171, 0.112946, -0.103973
10, 90000.000000,0.000122, 0.008423, -0.017487,-0.015594, -0.022797, -0.254303,0.063171, 0.112946, -0.103973
11, 100000.000000,0.000122, 0.008423, -0.017487,-0.015594, -0.022797, -0.254303,0.063171, 0.112946, -0.103973
12, 110000.000000,-0.001068, 0.009552, -0.017517,-0.015594, -0.022797, -0.254303,0.063171, 0.112946, -0.103973
13, 120000.000000,-0.001068, 0.009552, -0.017517,-0.015594, -0.030609, -0.252045,0.065857, 0.113892, -0.105011
14, 130000.000000,-0.001068, 0.009552, -0.017487,-0.015961, -0.023529, -0.252045,0.065857, 0.113892, -0.105011
15, 140000.000000,-0.000793, 0.009125, -0.017487,-0.015961, -0.023529, -0.252045,0.065857, 0.113892, -0.105011
16, 150000.000000,-0.000793, 0.009125, -0.017487,-0.015961, -0.023529, -0.252045,0.065857, 0.113892, -0.105011
17, 160000.000000,-0.000519, 0.009033, -0.017242,-0.015961, -0.023529, -0.252045,0.065857, 0.113892, -0.105011
18, 170000.000000,-0.000519, 0.009033, -0.017242,-0.015198, -0.022736, -0.255127,0.066833, 0.113312, -0.102905
19, 180000.000000,-0.000519, 0.008575, -0.017456,-0.015198, -0.022736, -0.255127,0.066833, 0.113312, -0.102905
20, 190000.000000,-0.001343, 0.008575, -0.017456,-0.015198, -0.022736, -0.255127,0.066833, 0.113312, -0.102905
21, 200000.000000,-0.001343, 0.008575, -0.017456,-0.015198, -0.022736, -0.255127,0.066833, 0.113312, -0.102905
22, 210000.000000,-0.001099, 0.009094, -0.017059,-0.015198, -0.022736, -0.254333,0.064758, 0.112823, -0.097717
23, 220000.000000,-0.001099, 0.009094, -0.017059,-0.014404, -0.022614, -0.254333,0.064758, 0.112823, -0.097717
24, 230000.000000,0.000519, 0.008484, -0.015900,-0.014404, -0.022614, -0.254333,0.064758, 0.112823, -0.097717
25, 240000.000000,0.000519, 0.008484, -0.015900,-0.014404, -0.022614, -0.254333,0.064758, 0.112823, -0.097717
26, 250000.000000,0.000519, 0.008484, -0.015900,-0.014404, -0.022614, -0.254333,0.064758, 0.112823, -0.097717
27, 260000.000000,-0.000397, 0.008148, -0.016388,-0.015747, -0.023438, -0.254272,0.061279, 0.113739, -0.095337
28, 270000.000000,-0.000397, 0.008148, -0.016388,-0.015747, -0.023438, -0.254272,0.061279, 0.113739, -0.095337
29, 280000.000000,-0.000641, 0.009247, -0.017242,-0.015747, -0.023438, -0.254272,0.061279, 0.113739, -0.095337
30, 290000.000000,-0.000641, 0.009247, -0.017242,-0.015747, -0.023438, -0.254272,0.061279, 0.113739, -0.095337
31, 300000.000000,-0.001160, 0.009430, -0.016754,-0.015411, -0.022400, -0.252625,0.064545, 0.113281, -0.105743
32, 310000.000000,-0.001160, 0.009430, -0.016754,-0.015411, -0.022400, -0.252625,0.064545, 0.113281, -0.105743
33, 320000.000000,-0.001160, 0.009430, -0.016754,-0.015411, -0.022400, -0.252625,0.064545, 0.113281, -0.105743
34, 330000.000000,-0.001312, 0.009796, -0.016937,-0.015411, -0.022400, -0.252625,0.064545, 0.113281, -0.105743
35, 340000.000000,-0.001312, 0.009796, -0.016937,-0.015411, -0.022400, -0.252625,0.064545, 0.113281, -0.101501
36, 350000.000000,-0.000702, 0.008911, -0.017487,-0.017883, -0.021881, -0.254303,0.063232, 0.115326, -0.101501
37, 360000.000000,-0.000702, 0.008911, -0.017487,-0.017883, -0.021881, -0.254303,0.063232, 0.115326, -0.101501
38, 370000.000000,-0.000702, 0.008911, -0.017487,-0.017883, -0.021881, -0.254303,0.063232, 0.115326, -0.101501
39, 380000.000000,0.000977, 0.009125, -0.016602,-0.017883, -0.021881, -0.254303,0.063232, 0.115326, -0.101501
40, 390000.000000,0.000977, 0.009125, -0.016602,-0.014893, -0.022095, -0.254913,0.060425, 0.113708, -0.098267
41, 400000.000000,0.000092, 0.008850, -0.017487,-0.014893, -0.022095, -0.254913,0.060425, 0.113708, -0.098267
42, 410000.000000,0.000092, 0.008850, -0.017487,-0.014893, -0.022095, -0.254913,0.060425, 0.113708, -0.098267
43, 420000.000000,0.000092, 0.008850, -0.017487,-0.014893, -0.022095, -0.254913,0.060425, 0.113708, -0.098267
44, 430000.000000,-0.000916, 0.008911, -0.017303,-0.014893, -0.022095, -0.254913,0.060425, 0.113708, -0.101654
45, 440000.000000,-0.000916, 0.008911, -0.017303,-0.015076, -0.022400, -0.255676,0.065033, 0.112610, -0.101654
46, 450000.000000,-0.000305, 0.009125, -0.016754,-0.015076, -0.022400, -0.255676,0.065033, 0.112610, -0.101654
47, 460000.000000,-0.000305, 0.009125, -0.016754,-0.015076, -0.022400, -0.255676,0.065033, 0.112610, -0.101654
48, 470000.000000,-0.000305, 0.009125, -0.017761,-0.015076, -0.022400, -0.255676,0.065033, 0.112610, -0.101654
49, 480000.000000,-0.000610, 0.008789, -0.017761,-0.016327, -0.022858, -0.255615,0.058838, 0.113495, -0.099304
50, 490000.000000,-0.000610, 0.008789, -0.017761,-0.016327, -0.022858, -0.255615,0.058838, 0.113495, -0.099304
51, 500000.000000,-0.001190, 0.010406, -0.016693,-0.016327, -0.022858, -0.255615,0.058838, 0.113495, -0.099304
52, 510000.000000,-0.001190, 0.010406, -0.016693,-0.016327, -0.022858, -0.255615,0.058838, 0.113495, -0.099304
53, 520000.000000,-0.000916, 0.008881, -0.016693,-0.016327, -0.022858, -0.255615,0.066650, 0.113922, -0.111786
54, 530000.000000,-0.000916, 0.008881, -0.016693,-0.015564, -0.022461, -0.253296,0.062500, 0.113922, -0.111786
55, 540000.000000,-0.000916, 0.008881, -0.016693,-0.015564, -0.022461, -0.253296,0.062500, 0.113922, -0.111786
56, 550000.000000,-0.001251, 0.009216, -0.017365,-0.015564, -0.022461, -0.253296,0.062500, 0.113922, -0.111786
57, 560000.000000,-0.001251, 0.009216, -0.017365,-0.015564, -0.022461, -0.253296,0.062500, 0.113922, -0.111786
58, 570000.000000,-0.000641, 0.008331, -0.017548,-0.015930, -0.023712, -0.250458,0.065308, 0.111816, -0.093842
59, 580000.000000,-0.000641, 0.008331, -0.017548,-0.015930, -0.023712, -0.250458,0.065308, 0.111816, -0.093842
60, 590000.000000,-0.000641, 0.008331, -0.017548,-0.015930, -0.023712, -0.250458,0.065308, 0.111816, -0.093842
61, 600000.000000,-0.001312, 0.008240, -0.018036,-0.015930, -0.023712, -0.250458,0.065308, 0.111816, -0.093842
62, 610000.000000,-0.001312, 0.008240, -0.018036,-0.015930, -0.023712, -0.250458,0.065308, 0.114594, -0.090271
63, 620000.000000,-0.000305, 0.008820, -0.016296,-0.016083, -0.022278, -0.253723,0.068970, 0.114594, -0.090271
64, 630000.000000,-0.000305, 0.008820, -0.016296,-0.016083, -0.022278, -0.253723,0.068970, 0.114594, -0.090271
65, 640000.000000,-0.000305, 0.008820, -0.016296,-0.016083, -0.022278, -0.253723,0.068970, 0.114594, -0.090271
66, 650000.000000,-0.000275, 0.008087, -0.016632,-0.016083, -0.022278, -0.253723,0.068970, 0.114594, -0.090271
67, 660000.000000,-0.000275, 0.008087, -0.016632,-0.015472, -0.022583, -0.257446,0.064331, 0.113434, -0.097992
68, 670000.000000,-0.000824, 0.009735, -0.017670,-0.015472, -0.022583, -0.257446,0.064331, 0.113434, -0.097992
69, 680000.000000,-0.000824, 0.009735, -0.017670,-0.015472, -0.022583, -0.257446,0.064331, 0.113434, -0.097992
70, 690000.000000,-0.001526, 0.009308, -0.018127,-0.015472, -0.022583, -0.257446,0.064331, 0.113434, -0.097992
71, 700000.000000,-0.001526, 0.009308, -0.018127,-0.015320, -0.023468, -0.254181,0.063324, 0.111847, -0.100220
72, 710000.000000,-0.001465, 0.009766, -0.018646,-0.015320, -0.023468, -0.254181,0.063324, 0.111847, -0.100220
73, 720000.000000,-0.001465, 0.009766, -0.018646,-0.015320, -0.023468, -0.254181,0.063324, 0.111847, -0.100220
74, 730000.000000,-0.001648, 0.009369, -0.016968,-0.015320, -0.023468, -0.254181,0.063324, 0.111847, -0.095184
75, 740000.000000,-0.001648, 0.009369, -0.016968,-0.015686, -0.023224, -0.255432,0.062958, 0.114594, -0.095184
76, 750000.000000,-0.001373, 0.009766, -0.017395,-0.015686, -0.023224, -0.255432,0.062958, 0.114594, -0.095184
77, 760000.000000,-0.001373, 0.009766, -0.017395,-0.015686, -0.023224, -0.255432,0.062958, 0.114594, -0.095184
78, 770000.000000,-0.000641, 0.008972, -0.017151,-0.015686, -0.023224, -0.255432,0.062958, 0.113831, -0.095520
79, 780000.000000,-0.000641, 0.008972, -0.017151,-0.012756, -0.023468, -0.256744,0.064484, 0.113831, -0.095520
80, 790000.000000,-0.000641, 0.008972, -0.016907,-0.012756, -0.023468, -0.256744,0.064484, 0.113831, -0.095520
81, 800000.000000,-0.000763, 0.008392, -0.016907,-0.012756, -0.023468, -0.256744,0.064484, 0.113831, -0.095520
82, 810000.000000,-0.000763, 0.008392, -0.016907,-0.012756, -0.023468, -0.256744,0.064484, 0.113831, -0.095520
83, 820000.000000,-0.000671, 0.008972, -0.016815,-0.014465, -0.022095, -0.256378,0.060150, 0.112579, -0.099335
84, 830000.000000,-0.000671, 0.008972, -0.016815,-0.014465, -0.022095, -0.256378,0.060150, 0.112579, -0.099335
85, 840000.000000,-0.001312, 0.007843, -0.017548,-0.014465, -0.022095, -0.256378,0.060150, 0.112579, -0.099335
86, 850000.000000,-0.001312, 0.007843, -0.017548,-0.014465, -0.022095, -0.256378,0.060150, 0.112579, -0.099335
87, 860000.000000,-0.001312, 0.008545, -0.017609,-0.015656, -0.023010, -0.253723,0.064758, 0.114777, -0.101410
88, 870000.000000,-0.000305, 0.008545, -0.017609,-0.015656, -0.023010, -0.253723,0.064758, 0.114777, -0.101410
89, 880000.000000,-0.000305, 0.008545, -0.017822,-0.015656, -0.023010, -0.253723,0.064758, 0.114777, -0.101410
90, 890000.000000,-0.001526, 0.009338, -0.017822,-0.015656, -0.023010, -0.253723,0.064758, 0.114777, -0.101410
91, 900000.000000,-0.001526, 0.009338, -0.017822,-0.015533, -0.022980, -0.255585,0.060791, 0.112762, -0.096893
92, 910000.000000,-0.001129, 0.007660, -0.018585,-0.015533, -0.022980, -0.255585,0.060791, 0.112762, -0.096893
93, 920000.000000,-0.001129, 0.007660, -0.018585,-0.015533, -0.022980, -0.255585,0.060791, 0.112762, -0.096893
94, 930000.000000,-0.001282, 0.007019, -0.017761,-0.015533, -0.022980, -0.255585,0.060791, 0.112762, -0.096893
95, 940000.000000,-0.001282, 0.007019, -0.017761,-0.015289, -0.022675, -0.252380,0.063751, 0.113342, -0.094452
96, 950000.000000,-0.001770, 0.008850, -0.018005,-0.015289, -0.022675, -0.252380,0.063751, 0.113342, -0.094452
97, 960000.000000,-0.001770, 0.008850, -0.018005,-0.015289, -0.022675, -0.252380,0.063751, 0.113342, -0.094452
98, 970000.000000,-0.002045, 0.009735, -0.018433,-0.015289, -0.022675, -0.252380,0.063751, 0.113342, -0.094452
99, 980000.000000,-0.002045, 0.009735, -0.018433,-0.015381, -0.021759, -0.249420,0.064240, 0.112518, -0.102386
100, 990000.000000,-0.000488, 0.009369, -0.016968,-0.015381, -0.021759, -0.249420,0.064240, 0.112518, -0.102386
101, 1000000.000000,-0.000488, 0.009369, -0.016968,-0.015381, -0.021759, -0.249420,0.064240, 0.112518, -0.102386
102, 1010000.000000,-0.000488, 0.009369, -0.016968,-0.015381, -0.021759, -0.249420,0.064240, 0.112518, -0.102386
103, 1020000.000000,-0.000397, 0.009338, -0.016937,-0.015594, -0.022339, -0.257690,0.060608, 0.112793, -0.098083
104, 1030000.000000,-0.000397, 0.009338, -0.016937,-0.015594, -0.022339, -0.257690,0.060608, 0.112793, -0.098083
105, 1040000.000000,-0.001617, 0.009155, -0.018127,-0.015594, -0.022339, -0.257690,0.060608, 0.112793, -0.098083
106, 1050000.000000,-0.001617, 0.009155, -0.018127,-0.015594, -0.022339, -0.257690,0.060608, 0.112793, -0.098083
107, 1060000.000000,-0.001526, 0.008545, -0.017029,-0.016083, -0.023224, -0.253113,0.062073, 0.114136, -0.101624
108, 1070000.000000,-0.001526, 0.008545, -0.017029,-0.016083, -0.023224, -0.253113,0.062073, 0.114136, -0.101624
109, 1080000.000000,-0.001526, 0.009247, -0.017212,-0.016083, -0.023224, -0.253113,0.062073, 0.114136, -0.101624
110, 1090000.000000,-0.001770, 0.009247, -0.017212,-0.016083, -0.023224, -0.253113,0.062073, 0.114136, -0.101624
111, 1100000.000000,-0.001770, 0.009247, -0.017212,-0.015350, -0.021851, -0.257477,0.060394, 0.112091, -0.093750
112, 1110000.000000,-0.002441, 0.009369, -0.017212,-0.015350, -0.021851, -0.257477,0.060394, 0.112091, -0.093750
113, 1120000.000000,-0.000702, 0.010498, -0.017273,-0.015350, -0.021851, -0.257477,0.060394, 0.112091, -0.093750
114, 1130000.000000,-0.000702, 0.010498, -0.017273,-0.015564, -0.023163, -0.253662,0.053711, 0.111816, -0.097809
115, 1140000.000000,-0.001495, 0.008881, -0.017853,-0.015564, -0.023163, -0.253662,0.053711, 0.111816, -0.097809
116, 1150000.000000,-0.001495, 0.009552, -0.016479,-0.015564, -0.023163, -0.253662,0.053711, 0.111816, -0.097809
117, 1160000.000000,0.000244, 0.009552, -0.016479,-0.014526, -0.022858, -0.253174,0.061737, 0.113007, -0.100983
118, 1170000.000000,0.000824, 0.008789, -0.016571,-0.014526, -0.022858, -0.253174,0.061737, 0.113007, -0.100983
119, 1180000.000000,0.000824, 0.008789, -0.016571,-0.014526, -0.022858, -0.253174,0.061737, 0.113007, -0.100983
120, 1190000.000000,-0.001587, 0.008118, -0.016296,-0.014526, -0.022858, -0.253174,0.061737, 0.113007, -0.100983
121, 1200000.000000,-0.001587, 0.008118, -0.016296,-0.015472, -0.023132, -0.255096,0.065338, 0.114258, -0.097382
122, 1210000.000000,-0.001587, 0.008118, -0.016266,-0.015472, -0.023132, -0.255096,0.065338, 0.114258, -0.097382
123, 1220000.000000,-0.001312, 0.008942, -0.016266,-0.015472, -0.023132, -0.255096,0.065338, 0.114258, -0.097382
124, 1230000.000000,-0.001312, 0.008942, -0.016266,-0.015472, -0.023132, -0.255096,0.065338, 0.114258, -0.097382
125, 1240000.000000,-0.000153, 0.009186, -0.016571,-0.015167, -0.023468, -0.254333,0.062195, 0.114136, -0.101959
126, 1250000.000000,-0.000153, 0.009186, -0.016571,-0.015167, -0.023468, -0.254333,0.062195, 0.114136, -0.101959
127, 1260000.000000,-0.000824, 0.009277, -0.017090,-0.015167, -0.023468, -0.254333,0.062195, 0.114136, -0.101959
128, 1270000.000000,-0.000824, 0.009277, -0.017090,-0.015167, -0.023468, -0.254333,0.062195, 0.114136, -0.101959
129, 1280000.000000,-0.001648, 0.009308, -0.016541,-0.014526, -0.023010, -0.254395,0.064270, 0.113190, -0.099854
130, 1290000.000000,-0.001648, 0.009308, -0.016541,-0.014526, -0.023010, -0.254395,0.064270, 0.113190, -0.099854
131, 1300000.000000,-0.001343, 0.010223, -0.016785,-0.014526, -0.023010, -0.254395,0.064270, 0.113190, -0.099854
132, 1310000.000000,-0.001343, 0.010223, -0.016785,-0.014526, -0.023010, -0.254395,0.064270, 0.113190, -0.099854
133, 1320000.000000,-0.001343, 0.009216, -0.017639,-0.016571, -0.023376, -0.254944,0.067200, 0.113037, -0.099579
134, 1330000.000000,-0.001099, 0.009216, -0.017639,-0.016571, -0.023376, -0.254944,0.067200, 0.113037, -0.099579
135, 1340000.000000,-0.001099, 0.009430, -0.017395,-0.016571, -0.023376, -0.254944,0.067200, 0.113037, -0.099579
136, 1350000.000000,-0.002625, 0.009430, -0.017395,-0.016571, -0.023376, -0.254944,0.067200, 0.113037, -0.099579
137, 1360000.000000,-0.002625, 0.009430, -0.017395,-0.015961, -0.022644, -0.254364,0.061371, 0.112000, -0.096039
138, 1370000.000000,-0.001099, 0.009216, -0.016998,-0.015961, -0.022644, -0.254364,0.061371, 0.112000, -0.096039
139, 1380000.000000,-0.001099, 0.009216, -0.016998,-0.015961, -0.022644, -0.254364,0.061371, 0.112000, -0.096039
140, 1390000.000000,-0.000427, 0.009155, -0.016449,-0.015961, -0.022644, -0.254364,0.061371, 0.112000, -0.096039
141, 1400000.000000,-0.000427, 0.009155, -0.016449,-0.015442, -0.023041, -0.257141,0.063110, 0.112610, -0.097076
142, 1410000.000000,-0.000763, 0.008667, -0.016693,-0.015442, -0.023041, -0.257141,0.063110, 0.112610, -0.097076
143, 1420000.000000,-0.000763, 0.008667, -0.016693,-0.015442, -0.023041, -0.257141,0.063110, 0.112610, -0.097076
144, 1430000.000000,-0.000763, 0.008667, -0.016693,-0.015442, -0.023041, -0.257141,0.063110, 0.112610, -0.097076
145, 1440000.000000,-0.000549, 0.009705, -0.016998,-0.015442, -0.022552, -0.256165,0.062469, 0.113739, -0.099854
146, 1450000.000000,-0.000549, 0.009705, -0.016998,-0.015533, -0.022552, -0.256165,0.062469, 0.113739, -0.099854
147, 1460000.000000,-0.000397, 0.008789, -0.017487,-0.015533, -0.022552, -0.256165,0.062469, 0.113739, -0.099854
148, 1470000.000000,-0.000397, 0.008789, -0.017487,-0.015533, -0.022552, -0.256165,0.062469, 0.113739, -0.099854
149, 1480000.000000,-0.000397, 0.008789, -0.018005,-0.015533, -0.022552, -0.256165,0.062469, 0.113739, -0.099854
150, 1490000.000000,-0.001801, 0.008545, -0.018005,-0.015778, -0.022522, -0.253479,0.066132, 0.111694, -0.090546
151, 1500000.000000,-0.001801, 0.008545, -0.018005,-0.015778, -0.022522, -0.253479,0.066132, 0.111694, -0.090546
152, 1510000.000000,-0.000580, 0.008331, -0.017303,-0.015778, -0.022522, -0.253479,0.066132, 0.111694, -0.090546
153, 1520000.000000,-0.000580, 0.008331, -0.017303,-0.015778, -0.022522, -0.253479,0.066132, 0.111694, -0.090546
154, 1530000.000000,-0.002441, 0.009613, -0.017517,-0.014526, -0.022430, -0.256805,0.062714, 0.113586, -0.093964
155, 1540000.000000,-0.002441, 0.009613, -0.017517,-0.014526, -0.022430, -0.256805,0.062714, 0.113586, -0.093964
156, 1550000.000000,-0.002441, 0.009613, -0.016541,-0.014526, -0.022430, -0.256805,0.062714, 0.113586, -0.093964
157, 1560000.000000,-0.001831, 0.009064, -0.016541,-0.014526, -0.022430, -0.256805,0.062714, 0.113586, -0.093964
158, 1570000.000000,-0.001831, 0.009064, -0.016541,-0.014526, -0.022430, -0.256805,0.062714, 0.114349, -0.092682
159, 1580000.000000,-0.000763, 0.008728, -0.017365,-0.014740, -0.022339, -0.253448,0.062775, 0.114349, -0.092682
160, 1590000.000000,-0.000763, 0.008728, -0.017365,-0.014740, -0.022339, -0.253448,0.062775, 0.114349, -0.092682
161, 1600000.000000,-0.000763, 0.008728, -0.016754,-0.014740, -0.022339, -0.253448,0.062775, 0.114349, -0.092682
162, 1610000.000000,-0.002075, 0.009003, -0.016754,-0.014740, -0.022339, -0.253448,0.062775, 0.114349, -0.092682
163, 1620000.000000,-0.002075, 0.009003, -0.016754,-0.014709, -0.023254, -0.254028,0.065033, 0.112640, -0.097992
164, 1630000.000000,-0.001587, 0.008270, -0.017426,-0.014709, -0.023254, -0.254028,0.065033, 0.112640, -0.097992
165, 1640000.000000,-0.001587, 0.008270, -0.017426,-0.014709, -0.023254, -0.254028,0.065033, 0.112640, -0.097992
166, 1650000.000000,-0.000916, 0.009155, -0.017944,-0.014709, -0.023254, -0.254028,0.065033, 0.112640, -0.097992
167, 1660000.000000,-0.000916, 0.009155, -0.017944,-0.014709, -0.023254, -0.254028,0.065033, 0.113617, -0.096466
168, 1670000.000000,-0.000916, 0.009155, -0.017944,-0.015472, -0.023254, -0.257141,0.064697, 0.113617, -0.096466
169, 1680000.000000,-0.001312, 0.010101, -0.017609,-0.015472, -0.023254, -0.257141,0.064697, 0.113617, -0.096466
170, 1690000.000000,-0.001312, 0.010101, -0.017609,-0.015472, -0.023254, -0.257141,0.064697, 0.113617, -0.096466
171, 1700000.000000,-0.000610, 0.008270, -0.016785,-0.015472, -0.023254, -0.257141,0.064697, 0.113617, -0.096466
172, 1710000.000000,-0.000610, 0.008270, -0.016785,-0.014923, -0.023010, -0.257172,0.065125, 0.113770, -0.106171
173, 1720000.000000,-0.000610, 0.008270, -0.016785,-0.014923, -0.023010, -0.257172,0.065125, 0.113770, -0.106171
174, 1730000.000000,-0.000824, 0.008179, -0.016907,-0.014923, -0.023010, -0.257172,0.065125, 0.113770, -0.106171
175, 1740000.000000,-0.000824, 0.008179, -0.016907,-0.014923, -0.023010, -0.257172,0.065125, 0.113770, -0.106171
176, 1750000.000000,-0.002350, 0.009277, -0.017212,-0.017090, -0.022766, -0.250641,0.059784, 0.113586, -0.097870
177, 1760000.000000,-0.002350, 0.009277, -0.017212,-0.017090, -0.022766, -0.250641,0.059784, 0.113586, -0.097870
178, 1770000.000000,-0.001678, 0.009216, -0.016479,-0.017090, -0.022766, -0.250641,0.059784, 0.113586, -0.097870
179, 1780000.000000,-0.001678, 0.009216, -0.016479,-0.017090, -0.022766, -0.250641,0.059784, 0.113586, -0.097870
180, 1790000.000000,-0.001678, 0.009216, -0.016479,-0.017090, -0.022766, -0.250641,0.059784, 0.110931, -0.093811
181, 1800000.000000,-0.000153, 0.009125, -0.017120,-0.014587, -0.022369, -0.254730,0.063416, 0.110931, -0.093811
182, 1810000.000000,-0.000153, 0.009125, -0.017120,-0.014587, -0.022369, -0.254730,0.063416, 0.110931, -0.093811
183, 1820000.000000,-0.001678, 0.009399, -0.017120,-0.014587, -0.022369, -0.254730,0.063416, 0.110931, -0.093811
184, 1830000.000000,-0.001678, 0.009399, -0.017120,-0.014587, -0.022369, -0.254730,0.063416, 0.110931, -0.093811
185, 1840000.000000,-0.001678, 0.009399, -0.017609,-0.014526, -0.022217, -0.256226,0.064301, 0.111481, -0.101135
186, 1850000.000000,-0.000916, 0.008942, -0.017609,-0.014526, -0.022217, -0.256226,0.064301, 0.111481, -0.101135
187, 1860000.000000,-0.000916, 0.008942, -0.017609,-0.014526, -0.022217, -0.256226,0.064301, 0.111481, -0.101135
188, 1870000.000000,-0.000183, 0.008850, -0.016907,-0.014526, -0.022217, -0.256226,0.064301, 0.111481, -0.101135
189, 1880000.000000,-0.000183, 0.008850, -0.016907,-0.014526, -0.022217, -0.256226,0.064301, 0.114563, -0.094086
190, 1890000.000000,-0.000183, 0.009460, -0.017242,-0.015289, -0.023346, -0.256165,0.063721, 0.114563, -0.094086
191, 1900000.000000,-0.000610, 0.009460, -0.017242,-0.015289, -0.023346, -0.256165,0.063721, 0.114563, -0.094086
192, 1910000.000000,-0.000610, 0.009460, -0.017242,-0.015289, -0.023346, -0.256165,0.063721, 0.114563, -0.094086
193, 1920000.000000,-0.000305, 0.010406, -0.016815,-0.015289, -0.023346, -0.256165,0.063721, 0.114563, -0.094086
194, 1930000.000000,-0.000305, 0.010406, -0.016815,-0.015289, -0.023102, -0.255524,0.058838, 0.113403, -0.095734
195, 1940000.000000,-0.000824, 0.009277, -0.017700,-0.015289, -0.023102, -0.255524,0.058838, 0.113403, -0.095734
196, 1950000.000000,-0.000824, 0.009277, -0.017700,-0.015289, -0.023102, -0.255524,0.058838, 0.113403, -0.095734
197, 1960000.000000,-0.000824, 0.009277, -0.017700,-0.015289, -0.023102, -0.255524,0.058838, 0.113403, -0.095734
198, 1970000.000000,-0.001404, 0.008911, -0.016388,-0.015289, -0.023102, -0.255524,0.058685, 0.111572, -0.101166
199, 1980000.000000,-0.001404, 0.008911, -0.016388,-0.015930, -0.022430, -0.255829,0.058685, 0.111572, -0.101166
200, 1990000.000000,-0.001312, 0.008667, -0.017548,-0.015930, -0.022430, -0.255829,0.058685, 0.111572, -0.101166
201, 2000000.000000,-0.001312, 0.008667, -0.017548,-0.015930, -0.022430, -0.255829,0.058685, 0.111572, -0.101166
202, 2010000.000000,-0.001312, 0.008667, -0.016663,-0.015930, -0.022430, -0.255829,0.058685, 0.111572, -0.101166
203, 2020000.000000,0.000061, 0.008240, -0.016663,-0.016174, -0.023224, -0.255524,0.064606, 0.113403, -0.097626
204, 2030000.000000,0.000061, 0.008240, -0.016663,-0.016174, -0.023224, -0.255524,0.064606, 0.113403, -0.097626
205, 2040000.000000,-0.000671, 0.008240, -0.016327,-0.016174, -0.023224, -0.255524,0.064606, 0.113403, -0.097626
206, 2050000.000000,-0.000671, 0.008240, -0.016327,-0.016174, -0.023224, -0.255524,0.064606, 0.113403, -0.097626
207, 2060000.000000,-0.001068, 0.008453, -0.016724,-0.016663, -0.023132, -0.255157,0.063599, 0.114380, -0.097046
208, 2070000.000000,-0.001068, 0.008453, -0.016724,-0.016663, -0.023132, -0.255157,0.063599, 0.114380, -0.097046
209, 2080000.000000,0.000488, 0.009460, -0.016266,-0.016663, -0.023132, -0.255157,0.063599, 0.114380, -0.097046
210, 2090000.000000,0.000488, 0.009460, -0.016266,-0.016663, -0.023132, -0.255157,0.063599, 0.114380, -0.097046
211, 2100000.000000,0.000488, 0.009277, -0.017334,-0.014893, -0.022614, -0.258331,0.064178, 0.112396, -0.097046
212, 2110000.000000,-0.001343, 0.009277, -0.017334,-0.014893, -0.022614, -0.258331,0.064178, 0.112396, -0.097046
213, 2120000.000000,-0.001343, 0.009277, -0.017334,-0.014893, -0.022614, -0.258331,0.064178, 0.112396, -0.097046
214, 2130000.000000,-0.001587, 0.008850, -0.016510,-0.014893, -0.022614, -0.258331,0.064178, 0.112396, -0.097046
215, 2140000.000000,-0.001587, 0.008850, -0.016510,-0.014801, -0.022980, -0.255463,0.066589, 0.110382, -0.099792
216, 2150000.000000,0.000214, 0.009186, -0.015961,-0.014801, -0.022980, -0.255463,0.066589, 0.110382, -0.099792
217, 2160000.000000,0.000214, 0.009186, -0.015961,-0.014801, -0.022980, -0.255463,0.066589, 0.110382, -0.099792
218, 2170000.000000,-0.000427, 0.009399, -0.016266,-0.014801, -0.022980, -0.255463,0.066589, 0.110382, -0.099792
219, 2180000.000000,-0.000427, 0.009399, -0.016266,-0.015533, -0.022736, -0.251923,0.060699, 0.111877, -0.097504
220, 2190000.000000,-0.000519, 0.009033, -0.016266,-0.015533, -0.022736, -0.251923,0.060699, 0.111877, -0.097504
221, 2200000.000000,-0.000519, 0.009033, -0.016266,-0.015533, -0.022736, -0.251923,0.060699, 0.111877, -0.097504
222, 2210000.000000,-0.000519, 0.009674, -0.017700,-0.015533, -0.022736, -0.251923,0.060699, 0.111877, -0.097504
223, 2220000.000000,-0.000275, 0.009674, -0.017700,-0.015533, -0.023102, -0.254578,0.065094, 0.113251, -0.102417
224, 2230000.000000,-0.000275, 0.009674, -0.017700,-0.014282, -0.023102, -0.254578,0.065094, 0.113251, -0.102417
225, 2240000.000000,-0.000641, 0.009399, -0.017700,-0.014282, -0.023102, -0.254578,0.065094, 0.113251, -0.102417
226, 2250000.000000,-0.000641, 0.009399, -0.017700,-0.014282, -0.023102, -0.254578,0.065094, 0.113251, -0.102417
227, 2260000.000000,-0.002106, 0.008606, -0.018158,-0.014282, -0.022095, -0.256042,0.062195, 0.112610, -0.098755
228, 2270000.000000,-0.002106, 0.008606, -0.018158,-0.015930, -0.022095, -0.256042,0.062195, 0.112610, -0.098755
229, 2280000.000000,-0.000793, 0.008942, -0.016632,-0.015930, -0.022095, -0.256042,0.062195, 0.112610, -0.098755
230, 2290000.000000,-0.000793, 0.008942, -0.016632,-0.015930, -0.022095, -0.256042,0.062195, 0.112610, -0.098755
231, 2300000.000000,-0.000793, 0.008942, -0.016632,-0.015930, -0.022095, -0.256042,0.062195, 0.112610, -0.093048
232, 2310000.000000,-0.000549, 0.009308, -0.017365,-0.014679, -0.023407, -0.255829,0.064575, 0.113220, -0.093048
233, 2320000.000000,-0.000549, 0.009308, -0.017365,-0.014679, -0.023407, -0.255829,0.064575, 0.113220, -0.093048
234, 2330000.000000,-0.001373, 0.009399, -0.017365,-0.014679, -0.023407, -0.255829,0.064575, 0.113220, -0.093048
235, 2340000.000000,-0.001373, 0.009399, -0.017365,-0.014679, -0.023407, -0.255829,0.064575, 0.113220, -0.093048
236, 2350000.000000,-0.001373, 0.001587, -0.017365,-0.011841, -0.023590, -0.253601,0.062531, 0.112915, -0.097748
237, 2360000.000000,-0.000641, 0.007416, -0.017365,-0.011841, -0.023590, -0.253601,0.062531, 0.112915, -0.097748
238, 2370000.000000,-0.000641, 0.007416, -0.017365,-0.011841, -0.023590, -0.253601,0.062531, 0.112915, -0.097748
239, 2380000.000000,0.000885, 0.004150, -0.016693,-0.011841, -0.023590, -0.253601,0.062531, 0.112915, -0.097748
240, 2390000.000000,0.000885, 0.004150, -0.016693,-0.011841, -0.023590, -0.253601,0.059662, 0.111877, -0.096588
241, 2400000.000000,0.000549, -0.003693, -0.015320,-0.008820, -0.033630, -0.263885,0.059662, 0.111877, -0.096588
242, 2410000.000000,0.000549, -0.003693, -0.015320,-0.008820, -0.033630, -0.263885,0.059662, 0.111877, -0.096588
243, 2420000.000000,-0.006989, -0.016235, -0.015289,-0.008820, -0.033630, -0.263885,0.059662, 0.111877, -0.096588
244, 2430000.000000,-0.006989, -0.016235, -0.015289,-0.021332, -0.026154, -0.254486,0.062286, 0.113556, -0.096710
245, 2440000.000000,-0.014618, -0.016968, -0.019012,-0.021332, -0.026154, -0.254486,0.062286, 0.113556, -0.096710
246, 2450000.000000,-0.014618, -0.016968, -0.019012,-0.021332, -0.026154, -0.254486,0.062286, 0.113556, -0.096710
247, 2460000.000000,-0.014618, -0.016968, -0.019012,-0.021332, -0.026154, -0.254486,0.062286, 0.113556, -0.096710
248, 2470000.000000,-0.016785, -0.005676, -0.016174,-0.021332, -0.026154, -0.254486,0.062286, 0.113556, -0.108368
249, 2480000.000000,-0.016785, -0.005676, -0.016174,-0.017883, -0.024567, -0.260162,0.064850, 0.113434, -0.108368
250, 2490000.000000,-0.014923, -0.000549, -0.017303,-0.017883, -0.024567, -0.260162,0.064850, 0.113434, -0.108368
251, 2500000.000000,-0.014923, -0.000549, -0.017303,-0.017883, -0.024567, -0.260162,0.064850, 0.113434, -0.108368
252, 2510000.000000,-0.014923, -0.000549, -0.017303,-0.017883, -0.024567, -0.260162,0.064850, 0.113434, -0.108368
253, 2520000.000000,-0.019348, -0.002167, -0.019928,-0.015686, -0.025482, -0.260590,0.065247, 0.110535, -0.091217
254, 2530000.000000,-0.019348, -0.002167, -0.019928,-0.015686, -0.025482, -0.260590,0.065247, 0.110535, -0.091217
255, 2540000.000000,-0.023132, -0.002960, -0.019073,-0.015686, -0.025482, -0.260590,0.065247, 0.110535, -0.091217
256, 2550000.000000,-0.023132, -0.002960, -0.019073,-0.015686, -0.025482, -0.260590,0.065247, 0.110535, -0.091217
257, 2560000.000000,-0.023132, -0.002960, -0.018127,-0.015686, -0.025482, -0.260590,0.065247, 0.110535, -0.101227
258, 2570000.000000,-0.008270, -0.002014, -0.018127,-0.015839, -0.025635, -0.260742,0.066925, 0.113281, -0.101227
259, 2580000.000000,-0.008270, -0.002014, -0.018127,-0.015839, -0.025635, -0.260742,0.066925, 0.113281, -0.101227
260, 2590000.000000,-0.007996, -0.002930, -0.017639,-0.015839, -0.025635, -0.260742,0.066925, 0.113281, -0.101227
261, 2600000.000000,-0.007996, -0.002930, -0.017639,-0.015839, -0.025635, -0.260742,0.066925, 0.113281, -0.101227
262, 2610000.000000,-0.007996, -0.003845, -0.017365,-0.017792, -0.020111, -0.254883,0.062408, 0.112244, -0.100037
263, 2620000.000000,-0.005524, -0.003845, -0.017365,-0.017792, -0.020111, -0.254883,0.062408, 0.112244, -0.100037
264, 2630000.000000,-0.005524, -0.003845, -0.017365,-0.017792, -0.020111, -0.254883,0.062408, 0.112244, -0.100037
265, 2640000.000000,-0.003479, -0.002655, -0.017151,-0.017792, -0.020111, -0.254883,0.062408, 0.112244, -0.100037
266, 2650000.000000,-0.003479, -0.002655, -0.016663,-0.018005, -0.025970, -0.255890,0.065674, 0.110229, -0.089020
267, 2660000.000000,-0.004883, -0.003998, -0.016663,-0.018005, -0.025970, -0.255890,0.065674, 0.110229, -0.089020
268, 2670000.000000,-0.004883, -0.003998, -0.016663,-0.018005, -0.025970, -0.255890,0.065674, 0.110229, -0.089020
269, 2680000.000000,-0.007019, -0.005798, -0.017548,-0.018005, -0.025970, -0.255890,0.065674, 0.110229, -0.089020
270, 2690000.000000,-0.007019, -0.005798, -0.017548,-0.016174, -0.022552, -0.259308,0.065613, 0.112762, -0.099365
271, 2700000.000000,-0.014832, -0.010620, -0.016418,-0.016174, -0.022552, -0.259308,0.065613, 0.112762, -0.099365
272, 2710000.000000,-0.009735, -0.010620, -0.016418,-0.016174, -0.022552, -0.259308,0.065613, 0.112762, -0.099365
273, 2720000.000000,-0.009735, -0.010620, -0.016418,-0.016174, -0.022552, -0.259308,0.065613, 0.112762, -0.099365
274, 2730000.000000,-0.010223, -0.014679, -0.014648,-0.016174, -0.022552, -0.259308,0.065613, 0.112762, -0.091553
275, 2740000.000000,-0.010223, -0.014679, -0.014648,-0.013367, -0.032196, -0.266602,0.062531, 0.111969, -0.093231
276, 2750000.000000,-0.021545, -0.020294, -0.011505,-0.013367, -0.032196, -0.266602,0.062531, 0.111969, -0.093231
277, 2760000.000000,-0.021545, -0.020294, -0.011505,-0.013367, -0.032196, -0.266602,0.062531, 0.111969, -0.093231
278, 2770000.000000,-0.030579, -0.025055, -0.006531,-0.022797, -0.008148, -0.247345,0.066040, 0.107758, -0.097687
279, 2780000.000000,-0.030579, -0.025055, -0.006531,-0.022797, -0.008148, -0.247345,0.066040, 0.107758, -0.097687
280, 2790000.000000,-0.023743, -0.023224, -0.005920,-0.022797, -0.008148, -0.247345,0.066040, 0.107758, -0.097687
281, 2800000.000000,-0.023743, -0.023224, -0.005920,-0.022797, -0.008148, -0.247345,0.066040, 0.107758, -0.097687
282, 2810000.000000,-0.007324, -0.020874, -0.004272,-0.022797, -0.024475, -0.256714,0.070221, 0.112518, -0.106323
283, 2820000.000000,-0.007324, -0.020874, -0.004272,-0.022766, -0.024475, -0.256714,0.070221, 0.112518, -0.106323
284, 2830000.000000,0.000305, -0.020386, 0.000641,-0.022766, -0.024475, -0.256714,0.070221, 0.112518, -0.106323
285, 2840000.000000,0.000305, -0.020386, 0.000641,-0.022766, -0.024475, -0.256714,0.070221, 0.112518, -0.106323
286, 2850000.000000,-0.000061, -0.021149, 0.000580,-0.020477, -0.005066, -0.270416,0.064575, 0.111725, -0.098938
287, 2860000.000000,-0.000061, -0.021149, 0.000580,-0.020477, -0.005066, -0.270416,0.064575, 0.111725, -0.098938
288, 2870000.000000,-0.001465, -0.024872, -0.007294,-0.020477, -0.005066, -0.270416,0.064575, 0.111725, -0.098938
289, 2880000.000000,-0.001465, -0.024872, -0.007294,-0.020477, -0.005066, -0.270416,0.064575, 0.111725, -0.098938
290, 2890000.000000,-0.001465, -0.032684, -0.016479,-0.016693, -0.003754, -0.276245,0.065125, 0.110046, -0.098511
291, 2900000.000000,0.004669, -0.038391, -0.016479,-0.016693, -0.003754, -0.276245,0.065125, 0.110046, -0.098511
292, 2910000.000000,0.004669, -0.038391, -0.016479,-0.016693, -0.003754, -0.276245,0.065125, 0.110046, -0.098511
293, 2920000.000000,0.009918, -0.049957, -0.019592,-0.016693, -0.003754, -0.276245,0.065125, 0.110046, -0.098511
294, 2930000.000000,0.009918, -0.049957, -0.019592,-0.017731, -0.029877, -0.270752,0.063324, 0.109436, -0.093750
295, 2940000.000000,0.007080, -0.066681, -0.015869,-0.017731, -0.029877, -0.270752,0.063324, 0.109436, -0.093750
296, 2950000.000000,0.007080, -0.066681, -0.015869,-0.017731, -0.029877, -0.270752,0.063324, 0.109436, -0.093750
297, 2960000.000000,0.007080, -0.069672, -0.014160,-0.017731, -0.029877, -0.270752,0.063324, 0.109436, -0.093750
298, 2970000.000000,0.006775, -0.069672, -0.014160,-0.017731, -0.014252, -0.234528,0.071869, 0.111145, -0.092896
299, 2980000.000000,0.006775, -0.069672, -0.014160,-0.029388, -0.009613, -0.234528,0.071869, 0.111145, -0.092896
300, 2990000.000000,0.009033, -0.061188, -0.017212,-0.029388, -0.009613, -0.234528,0.071869, 0.111145, -0.092896
301, 3000000.000000,0.009033, -0.061188, -0.017212,-0.029388, -0.009613, -0.234528,0.071869, 0.111145, -0.092896
302, 3010000.000000,0.009033, -0.049286, -0.020508,-0.029388, -0.009613, -0.234528,0.071869, 0.111145, -0.092896
303, 3020000.000000,0.012726, -0.049286, -0.020508,-0.032410, -0.023285, -0.233826,0.067871, 0.110382, -0.096497
304, 3030000.000000,0.012726, -0.049286, -0.020508,-0.032410, -0.023285, -0.233826,0.067871, 0.110382, -0.096497
305, 3040000.000000,0.016876, -0.037689, -0.020416,-0.032410, -0.023285, -0.233826,0.067871, 0.110382, -0.096497
306, 3050000.000000,0.016876, -0.037689, -0.020416,-0.032410, -0.023285, -0.233826,0.067871, 0.110382, -0.096497
307, 3060000.000000,0.016754, -0.040375, -0.018494,-0.022278, -0.016388, -0.262543,0.070892, 0.110229, -0.101013
308, 3070000.000000,0.016754, -0.040375, -0.018494,-0.022278, -0.016388, -0.262543,0.070892, 0.110229, -0.101013
309, 3080000.000000,0.008942, -0.049377, -0.019165,-0.022278, -0.016388, -0.262543,0.070892, 0.110229, -0.101013
310, 3090000.000000,0.010162, -0.049377, -0.019165,-0.022278, -0.016388, -0.262543,0.070892, 0.110229, -0.101013
311, 3100000.000000,0.010162, -0.049377, -0.019165,-0.022278, -0.016388, -0.262543,0.070892, 0.102417, -0.100861
312, 3110000.000000,0.018646, -0.039978, -0.024567,-0.036469, -0.008759, -0.226776,0.071503, 0.108765, -0.100861
313, 3120000.000000,0.018646, -0.039978, -0.024567,-0.036469, -0.008759, -0.226776,0.071503, 0.108765, -0.100861
314, 3130000.000000,0.027222, -0.027954, -0.028839,-0.036469, -0.008759, -0.226776,0.071503, 0.108765, -0.100861
315, 3140000.000000,0.027222, -0.027954, -0.028839,-0.036469, -0.008759, -0.226776,0.071503, 0.108765, -0.100861
316, 3150000.000000,0.027222, -0.027954, -0.028839,-0.028473, -0.020447, -0.260376,0.072723, 0.108734, -0.092865
317, 3160000.000000,0.028442, -0.025299, -0.030304,-0.028473, -0.020447, -0.260376,0.072723, 0.108734, -0.092865
318, 3170000.000000,0.028442, -0.025299, -0.030304,-0.028473, -0.020447, -0.260376,0.072723, 0.108734, -0.092865
319, 3180000.000000,0.022705, -0.028625, -0.030579,-0.028473, -0.020447, -0.260376,0.072723, 0.108734, -0.092865
320, 3190000.000000,0.022705, -0.028625, -0.030579,-0.028473, -0.020447, -0.260376,0.072723, 0.108734, -0.096741
321, 3200000.000000,0.022705, -0.028625, -0.030579,-0.036102, -0.029877, -0.237823,0.070770, 0.109619, -0.096741
322, 3210000.000000,0.029236, -0.016693, -0.030548,-0.036102, -0.029877, -0.237823,0.070770, 0.109619, -0.096741
323, 3220000.000000,0.029236, -0.016693, -0.030548,-0.036102, -0.029877, -0.237823,0.070770, 0.109619, -0.096741
324, 3230000.000000,0.027069, -0.008240, -0.027649,-0.036102, -0.029877, -0.237823,0.070770, 0.109619, -0.096741
325, 3240000.000000,0.027069, -0.008240, -0.027649,-0.035828, -0.034882, -0.244720,0.072388, 0.111694, -0.097748
326, 3250000.000000,0.027069, -0.008240, -0.027649,-0.035828, -0.034882, -0.244720,0.072388, 0.111694, -0.097748
327, 3260000.000000,0.022552, -0.003723, -0.025452,-0.035828, -0.034882, -0.244720,0.072388, 0.111694, -0.097748
328, 3270000.000000,0.022552, -0.003723, -0.025452,-0.035828, -0.034882, -0.244720,0.072388, 0.111694, -0.097748
329, 3280000.000000,0.013489, -0.001160, -0.021210,-0.035828, -0.034882, -0.244720,0.072388, 0.111694, -0.098633
330, 3290000.000000,0.013489, -0.001160, -0.021210,-0.036957, -0.027252, -0.230713,0.071136, 0.111420, -0.098633
331, 3300000.000000,0.012024, 0.007538, -0.021423,-0.036957, -0.027252, -0.230713,0.071136, 0.111420, -0.098633
332, 3310000.000000,0.012024, 0.007538, -0.021423,-0.036957, -0.027252, -0.230713,0.071136, 0.111420, -0.098633
333, 3320000.000000,0.012024, 0.007538, -0.021820,-0.036957, -0.027252, -0.230713,0.071136, 0.111420, -0.098633
334, 3330000.000000,0.007263, 0.013733, -0.021820,-0.034332, -0.017334, -0.238678,0.072449, 0.112000, -0.095062
335, 3340000.000000,0.007263, 0.013733, -0.021820,-0.034332, -0.017334, -0.238678,0.072449, 0.112000, -0.095062
336, 3350000.000000,0.009705, 0.019775, -0.022491,-0.034332, -0.017334, -0.238678,0.072449, 0.112000, -0.095062
337, 3360000.000000,0.009705, 0.019775, -0.022491,-0.034332, -0.017334, -0.238678,0.072449, 0.112000, -0.095062
338, 3370000.000000,0.009705, 0.022827, -0.024200,-0.034332, -0.014557, -0.227722,0.072601, 0.113220, -0.097412
339, 3380000.000000,0.010284, 0.022827, -0.024200,-0.033447, -0.014557, -0.227722,0.072601, 0.113220, -0.097412
340, 3390000.000000,0.014069, 0.030365, -0.026581,-0.033447, -0.014557, -0.227722,0.072601, 0.113220, -0.097412
341, 3400000.000000,0.014069, 0.030365, -0.026581,-0.033447, -0.014557, -0.227722,0.072601, 0.113220, -0.097412
342, 3410000.000000,0.014069, 0.030365, -0.027069,-0.033325, -0.015747, -0.246826,0.072998, 0.110077, -0.098785
343, 3420000.000000,0.016785, 0.038696, -0.027069,-0.033325, -0.015747, -0.246826,0.072998, 0.110077, -0.098785
344, 3430000.000000,0.016785, 0.038696, -0.027069,-0.033325, -0.015747, -0.246826,0.072998, 0.110077, -0.098785
345, 3440000.000000,0.025482, 0.043884, -0.028229,-0.033325, -0.015747, -0.246826,0.072998, 0.110077, -0.098785
346, 3450000.000000,0.025482, 0.043884, -0.028229,-0.033325, -0.026367, -0.256683,0.071136, 0.111969, -0.101410
347, 3460000.000000,0.018005, 0.032745, -0.026855,-0.032654, -0.026367, -0.256683,0.071136, 0.111969, -0.101410
348, 3470000.000000,0.018005, 0.032745, -0.026855,-0.032654, -0.026367, -0.256683,0.071136, 0.111969, -0.101410
349, 3480000.000000,0.025818, 0.035309, -0.022583,-0.032654, -0.026367, -0.256683,0.071136, 0.111969, -0.101410
350, 3490000.000000,0.026794, 0.035309, -0.022583,0.002594, -0.088562, -0.306946,0.069061, 0.110687, -0.096100
351, 3500000.000000,-0.035004, 0.006348, -0.008484,0.002594, -0.088562, -0.306946,0.069061, 0.110687, -0.096100
352, 3510000.000000,-0.035004, 0.006348, -0.008484,0.002594, -0.088562, -0.306946,0.069061, 0.110687, -0.096100
353, 3520000.000000,-0.015717, 0.017090, -0.006775,0.002594, -0.088562, -0.306946,0.069061, 0.110687, -0.096100
354, 3530000.000000,-0.015717, 0.017090, -0.006775,-0.015045, -0.053680, -0.294098,0.068787, 0.113190, -0.093781
355, 3540000.000000,-0.015717, 0.017090, -0.006775,-0.015045, -0.053680, -0.294098,0.068787, 0.113190, -0.093781
356, 3550000.000000,-0.025208, 0.015839, -0.005127,-0.015045, -0.053680, -0.294098,0.068787, 0.113190, -0.093781
357, 3560000.000000,-0.025208, 0.015839, -0.005127,-0.015045, -0.053680, -0.294098,0.068787, 0.113190, -0.093781
358, 3570000.000000,-0.039001, 0.007812, -0.004028,-0.033539, -0.025085, -0.243561,0.068542, 0.112183, -0.089630
359, 3580000.000000,-0.035492, 0.027069, -0.006073,-0.034943, -0.023499, -0.249298,0.068665, 0.111542, -0.097534
360, 3590000.000000,-0.035492, 0.034882, -0.010162,-0.034943, -0.023499, -0.249298,0.068665, 0.111542, -0.097534
361, 3600000.000000,-0.029633, 0.035339, -0.010162,-0.034943, -0.023499, -0.233673,0.068665, 0.111694, -0.096344
362, 3610000.000000,-0.029633, 0.035339, -0.010162,-0.038971, -0.026733, -0.232452,0.070068, 0.111694, -0.096344
363, 3620000.000000,-0.037476, 0.046143, -0.009918,-0.038971, -0.026733, -0.232452,0.070068, 0.111694, -0.096344
364, 3630000.000000,-0.037476, 0.046143, -0.009918,-0.038971, -0.026733, -0.232452,0.070068, 0.111694, -0.096344
365, 3640000.000000,-0.045288, 0.071564, -0.011627,-0.038971, -0.026733, -0.232452,0.070068, 0.111694, -0.096344
366, 3650000.000000,-0.040497, 0.071564, -0.011627,-0.031494, -0.012817, -0.246216,0.067352, 0.112823, -0.098755
367, 3660000.000000,-0.040497, 0.071564, -0.011627,-0.031494, -0.012817, -0.246216,0.067352, 0.112823, -0.098755
368, 3670000.000000,-0.041351, 0.092377, -0.012695,-0.031494, -0.012817, -0.246216,0.067352, 0.112823, -0.098755
369, 3680000.000000,-0.041351, 0.092377, -0.012695,-0.031494, -0.012817, -0.246216,0.067352, 0.112823, -0.098755
370, 3690000.000000,-0.026062, 0.120422, -0.019684,-0.031494, -0.012817, -0.269653,0.068329, 0.111786, -0.096985
371, 3700000.000000,-0.026062, 0.120422, -0.019684,-0.018890, -0.004791, -0.268585,0.068329, 0.111786, -0.096985
372, 3710000.000000,-0.026062, 0.120422, -0.019684,-0.018890, -0.004791, -0.268585,0.068329, 0.111786, -0.096985
373, 3720000.000000,0.012177, 0.128021, -0.030609,-0.018890, -0.004791, -0.268585,0.068329, 0.111786, -0.096985
374, 3730000.000000,0.012177, 0.128021, -0.030609,-0.018890, -0.004791, -0.268585,0.068329, 0.111786, -0.096985
375, 3740000.000000,0.016022, 0.087830, -0.030853,-0.035492, -0.006378, -0.244537,0.063812, 0.109863, -0.101318
376, 3750000.000000,0.016022, 0.087830, -0.030853,-0.035492, -0.006378, -0.244537,0.063812, 0.109863, -0.101318
377, 3760000.000000,0.016022, 0.087830, -0.030853,-0.035492, -0.006378, -0.244537,0.063812, 0.109863, -0.101318
378, 3770000.000000,0.037659, 0.098541, -0.032074,-0.035492, -0.006378, -0.244537,0.063812, 0.109863, -0.101318
379, 3780000.000000,0.037659, 0.098541, -0.032074,-0.035492, -0.006378, -0.244537,0.063812, 0.111786, -0.102173
380, 3790000.000000,0.031128, 0.092255, -0.028839,-0.013855, -0.022522, -0.268280,0.063873, 0.111786, -0.102173
381, 3800000.000000,0.031128, 0.092255, -0.028839,-0.013855, -0.022522, -0.268280,0.063873, 0.111786, -0.102173
382, 3810000.000000,0.031128, 0.092255, -0.012604,-0.013855, -0.022522, -0.268280,0.063873, 0.111786, -0.102173
383, 3820000.000000,0.007141, 0.072723, -0.012604,-0.013855, -0.022522, -0.268280,0.063873, 0.111786, -0.102173
384, 3830000.000000,0.007141, 0.072723, -0.012604,-0.017029, -0.012085, -0.247467,0.062988, 0.112915, -0.102539
385, 3840000.000000,0.008240, 0.063019, -0.002258,-0.017029, -0.012085, -0.247467,0.062988, 0.112915, -0.102539
386, 3850000.000000,0.008240, 0.063019, -0.002258,-0.017029, -0.012085, -0.247467,0.062988, 0.112915, -0.102539
387, 3860000.000000,-0.007385, 0.078552, -0.003784,-0.017029, -0.012085, -0.247467,0.062988, 0.112915, -0.102539
388, 3870000.000000,-0.002441, 0.078552, -0.003784,-0.017029, -0.012085, -0.247467,0.063599, 0.113068, -0.093201
389, 3880000.000000,-0.002441, 0.078552, -0.003784,-0.034912, -0.002808, -0.245117,0.063599, 0.113068, -0.093201
390, 3890000.000000,0.044678, 0.138824, -0.010956,-0.034912, -0.002808, -0.245117,0.063599, 0.113068, -0.093201
391, 3900000.000000,0.044678, 0.138824, -0.010956,-0.034912, -0.002808, -0.245117,0.063599, 0.113068, -0.093201
392, 3910000.000000,0.043030, 0.171997, -0.006775,-0.034912, -0.002808, -0.245117,0.063599, 0.115417, -0.097534
393, 3920000.000000,0.043030, 0.171997, -0.006775,-0.016968, -0.011841, -0.256683,0.061310, 0.115417, -0.097534
394, 3930000.000000,0.060608, 0.197357, 0.000610,-0.016968, -0.011841, -0.256683,0.061310, 0.115417, -0.097534
395, 3940000.000000,0.060608, 0.197357, 0.000610,-0.016968, -0.011841, -0.256683,0.061310, 0.115417, -0.097534
396, 3950000.000000,0.078217, 0.188019, 0.011475,-0.016968, -0.011841, -0.273621,0.055359, 0.116058, -0.095551
397, 3960000.000000,0.078217, 0.188019, 0.011475,-0.003754, -0.023743, -0.273621,0.055359, 0.116058, -0.095551
398, 3970000.000000,0.078217, 0.188019, 0.054932,-0.003754, -0.023743, -0.273621,0.055359, 0.116058, -0.095551
399, 3980000.000000,0.099182, 0.178162, 0.054932,-0.003754, -0.023743, -0.273621,0.055359, 0.116058, -0.095551
400, 3990000.000000,0.099182, 0.178162, 0.054932,-0.003754, -0.023743, -0.273621,0.055359, 0.117523, -0.096252
401, 4000000.000000,0.075104, 0.121521, 0.042206,0.011505, -0.046783, -0.273865,0.059326, 0.117523, -0.096252
402, 4010000.000000,0.039490, 0.102142, 0.016388,0.011505, -0.046783, -0.273865,0.059326, 0.117523, -0.096252
403, 4020000.000000,0.039490, 0.102142, 0.011871,0.011505, -0.034058, -0.254883,0.054352, 0.117249, -0.099976
404, 4030000.000000,0.058044, 0.105011, 0.011871,0.004608, -0.034058, -0.254883,0.054352, 0.117249, -0.099976
405, 4040000.000000,0.058044, 0.092102, 0.009857,0.004608, -0.034058, -0.254883,0.054352, 0.117249, -0.099976
406, 4050000.000000,0.062012, 0.092102, 0.009857,0.004608, -0.034058, -0.254883,0.054352, 0.117249, -0.099976
407, 4060000.000000,0.062012, 0.092102, 0.009857,-0.004852, -0.054718, -0.259033,0.052490, 0.116882, -0.095062
408, 4070000.000000,0.040863, 0.089294, 0.014740,-0.004852, -0.054718, -0.259033,0.052490, 0.116882, -0.095062
409, 4080000.000000,0.040863, 0.089294, 0.014740,-0.004852, -0.054718, -0.259033,0.052490, 0.116882, -0.095062
410, 4090000.000000,-0.012604, 0.114777, -0.011292,-0.004852, -0.054718, -0.259033,0.052490, 0.116882, -0.095062
411, 4100000.000000,-0.012604, 0.114777, -0.011292,-0.017090, -0.035553, -0.253693,0.051910, 0.119080, -0.100800
412, 4110000.000000,-0.038879, 0.153290, -0.015045,-0.017090, -0.035553, -0.253693,0.051910, 0.119080, -0.100800
413, 4120000.000000,-0.038879, 0.153290, -0.015045,-0.017090, -0.035553, -0.253693,0.051910, 0.119080, -0.100800
414, 4130000.000000,-0.038879, 0.153290, -0.038483,-0.017090, -0.035553, -0.253693,0.051910, 0.119080, -0.100800
415, 4140000.000000,-0.047974, 0.156677, -0.034332,-0.017090, -0.038513, -0.243011,0.050293, 0.117584, -0.095062
416, 4150000.000000,-0.047974, 0.156677, -0.034332,-0.017944, -0.038513, -0.243011,0.050293, 0.117584, -0.095062
417, 4160000.000000,0.001740, 0.172882, -0.030365,-0.017944, -0.038513, -0.243011,0.050293, 0.117584, -0.095062
418, 4170000.000000,0.001740, 0.172882, -0.030365,-0.017944, -0.038513, -0.243011,0.050293, 0.117584, -0.095062
419, 4180000.000000,0.001740, 0.172882, -0.077332,-0.017944, -0.038513, -0.243011,0.050293, 0.117584, -0.095062
420, 4190000.000000,-0.154663, 0.338470, -0.077332,-0.311615, -0.038727, -0.282745,0.050842, 0.115753, -0.100433
421, 4200000.000000,-0.154663, 0.338470, -0.077332,-0.311615, -0.038727, -0.282745,0.050842, 0.115753, -0.100433
422, 4210000.000000,-0.267456, 0.604767, -0.092438,-0.311615, -0.038727, -0.282745,0.050842, 0.115753, -0.100433
423, 4220000.000000,-0.267456, 0.604767, -0.092438,-0.311615, -0.038727, -0.282745,0.050842, 0.115753, -0.100433
424, 4230000.000000,-0.170807, 0.938232, -0.184082,-0.007874, -0.154846, -0.461670,0.042664, 0.113068, -0.100555
425, 4240000.000000,-0.170807, 0.938232, -0.184082,-0.007874, -0.154846, -0.461670,0.042664, 0.113068, -0.100555
426, 4250000.000000,-0.170807, 0.938232, -0.208954,-0.007874, -0.154846, -0.461670,0.042664, 0.113068, -0.100555
427, 4260000.000000,-0.341980, 0.987640, -0.208954,-0.007874, -0.154846, -0.461670,0.042664, 0.113068, -0.100555
428, 4270000.000000,-0.341980, 0.987640, -0.208954,-0.007874, -0.154846, -0.461670,0.042664, 0.110718, -0.098511
429, 4280000.000000,-0.291199, 0.989258, -0.345154,-0.206055, 0.163269, -0.515137,0.029053, 0.110718, -0.098511
430, 4290000.000000,-0.291199, 0.989258, -0.345154,-0.206055, 0.163269, -0.515137,0.029053, 0.110718, -0.098511
431, 4300000.000000,-0.291199, 0.989258, -0.503265,-0.206055, 0.163269, -0.515137,0.029053, 0.110718, -0.098511
432, 4310000.000000,-0.004852, 0.989258, -0.503265,-0.206055, 0.163269, -0.515137,0.029053, 0.110718, -0.098511
433, 4320000.000000,-0.004852, 0.989258, -0.503265,-0.541992, 0.011200, -0.657043,0.004089, 0.104797, -0.086090
434, 4330000.000000,-0.095642, 0.989258, -0.618622,-0.541992, 0.011200, -0.657043,0.004089, 0.104797, -0.086090
435, 4340000.000000,-0.095642, 0.989258, -0.618622,-0.541992, 0.011200, -0.657043,0.004089, 0.104797, -0.086090
436, 4350000.000000,-0.351013, 0.989258, -0.696991,-0.541992, 0.011200, -0.657043,0.004089, 0.104797, -0.086090
437, 4360000.000000,-0.351013, 0.989258, -0.696991,-0.541992, -0.169373, 0.175018,-0.021179, 0.099152, -0.054962
438, 4370000.000000,-0.351013, 0.989258, -0.315186,-0.770599, -0.169373, 0.175018,-0.021179, 0.099152, -0.054962
439, 4380000.000000,-0.359344, 0.989258, -0.315186,-0.770599, -0.169373, 0.175018,-0.021179, 0.099152, -0.054962
440, 4390000.000000,-0.359344, 0.989258, -0.315186,-0.770599, -0.169373, 0.175018,-0.021179, 0.099152, -0.054962
441, 4400000.000000,0.451660, 0.935028, -0.373749,-0.770599, -0.169373, 0.175018,-0.021179, 0.099152, -0.043823
442, 4410000.000000,0.451660, 0.935028, -0.373749,0.078094, -0.018799, -0.999756,-0.030396, 0.095703, -0.043823
443, 4420000.000000,0.047058, 0.786774, -0.328766,0.078094, -0.018799, -0.999756,-0.030396, 0.095703, -0.043823
444, 4430000.000000,0.047058, 0.786774, -0.328766,0.078094, -0.018799, -0.999756,-0.030396, 0.095703, -0.043823
445, 4440000.000000,0.079193, 0.064636, -0.101044,0.078094, -0.200104, -0.805847,-0.035858, 0.097992, -0.063660
446, 4450000.000000,0.079193, 0.064636, -0.101044,-0.438110, -0.200104, -0.805847,-0.035858, 0.097992, -0.063660
447, 4460000.000000,0.035980, -0.436676, 0.042664,-0.438110, -0.200104, -0.805847,-0.035858, 0.097992, -0.063660
448, 4470000.000000,0.035980, -0.436676, 0.042664,-0.438110, -0.200104, -0.805847,-0.035858, 0.097992, -0.063660
449, 4480000.000000,0.035980, -0.514801, 0.078644,-0.438110, -0.200104, -0.369446,-0.036224, 0.096710, -0.074890
450, 4490000.000000,0.060699, -0.510651, 0.078644,-0.420715, -0.066132, -0.369446,-0.036224, 0.096710, -0.074890
451, 4500000.000000,0.060699, -0.510651, 0.078644,-0.420715, -0.066132, -0.369446,-0.036224, 0.096710, -0.074890
452, 4510000.000000,0.104980, -0.520477, 0.083893,-0.420715, -0.066132, -0.369446,-0.036224, 0.096710, -0.074890
453, 4520000.000000,0.104980, -0.520477, 0.083893,-0.420715, -0.066132, -0.369446,-0.036224, 0.096710, -0.099884
454, 4530000.000000,0.196716, -0.623291, 0.069885,-0.333435, 0.043488, -0.552521,-0.028412, 0.096924, -0.099884
455, 4540000.000000,0.196716, -0.623291, 0.069885,-0.333435, 0.043488, -0.552521,-0.028412, 0.096924, -0.099884
456, 4550000.000000,0.308075, -0.814423, 0.036163,-0.333435, 0.043488, -0.552521,-0.028412, 0.096924, -0.099884
457, 4560000.000000,0.308075, -0.814423, 0.036163,-0.333435, 0.043488, -0.552521,-0.028412, 0.096924, -0.115509
458, 4570000.000000,0.308075, -0.814423, 0.003448,-0.192627, 0.039459, -0.690216,-0.013367, 0.103699, -0.115295
459, 4580000.000000,0.375366, -0.981079, 0.003448,-0.192627, 0.039459, -0.690216,-0.013367, 0.103699, -0.115295
460, 4590000.000000,0.375366, -0.981079, 0.003448,-0.192627, 0.039459, -0.690216,-0.013367, 0.103699, -0.115295
461, 4600000.000000,0.376923, -1.000000, 0.000458,-0.192627, 0.039459, -0.690216,-0.013367, 0.103699, -0.115295
462, 4610000.000000,0.376923, -1.000000, 0.000458,-0.070831, -0.025757, -0.388428,0.014923, 0.105835, -0.127899
463, 4620000.000000,0.378052, -1.000000, 0.029358,-0.070831, -0.025757, -0.388428,0.014923, 0.105835, -0.127899
464, 4630000.000000,0.378052, -1.000000, 0.029358,-0.070831, -0.025757, -0.388428,0.014923, 0.105835, -0.127899
465, 4640000.000000,0.368958, -1.000000, 0.097626,-0.070831, -0.025757, -0.388428,0.014923, 0.105835, -0.127899
466, 4650000.000000,0.368958, -1.000000, 0.097626,0.024475, -0.114380, -0.265106,0.051270, 0.116119, -0.128204
467, 4660000.000000,0.335571, -1.000000, 0.203308,0.024475, -0.114380, -0.265106,0.051270, 0.116119, -0.128204
468, 4670000.000000,0.335571, -1.000000, 0.203308,0.024475, -0.114380, -0.265106,0.051270, 0.116119, -0.128204
469, 4680000.000000,0.288696, -1.000000, 0.316681,0.024475, -0.114380, -0.265106,0.051270, 0.116119, -0.128204
470, 4690000.000000,0.284698, -1.000000, 0.316681,0.096069, -0.037262, -0.368774,0.089111, 0.120239, -0.097900
471, 4700000.000000,0.284698, -1.000000, 0.316681,0.096069, -0.037262, -0.368774,0.089111, 0.120239, -0.097900
472, 4710000.000000,0.246277, -1.000000, 0.398987,0.096069, -0.037262, -0.368774,0.089111, 0.120239, -0.097900
473, 4720000.000000,0.246277, -1.000000, 0.398987,0.096069, -0.037262, -0.368774,0.089111, 0.120239, -0.097900
474, 4730000.000000,0.276184, -1.000000, 0.468994,0.147980, 0.165894, -0.460632,0.100800, 0.104248, -0.060333
475, 4740000.000000,0.276184, -1.000000, 0.468994,0.147980, 0.165894, -0.460632,0.100800, 0.104248, -0.060333
476, 4750000.000000,0.288727, -1.000000, 0.396759,0.147980, 0.165894, -0.460632,0.100800, 0.104248, -0.060333
477, 4760000.000000,0.288727, -1.000000, 0.396759,0.147980, 0.165894, -0.460632,0.100800, 0.104248, -0.060333
478, 4770000.000000,0.288727, -1.000000, 0.286835,0.191650, 0.156494, -0.525238,0.078613, 0.082184, -0.050812
479, 4780000.000000,0.222107, -1.000000, 0.286835,0.191650, 0.156494, -0.525238,0.078613, 0.082184, -0.050812
480, 4790000.000000,0.222107, -1.000000, 0.286835,0.191650, 0.156494, -0.525238,0.078613, 0.082184, -0.050812
481, 4800000.000000,0.148682, -1.000000, 0.225952,0.191650, 0.156494, -0.525238,0.078613, 0.082184, -0.050812
482, 4810000.000000,0.148682, -1.000000, 0.225952,0.290741, 0.010834, -0.481934,0.070679, 0.066956, -0.080170
483, 4820000.000000,0.073242, -1.000000, 0.204468,0.290741, 0.010834, -0.481934,0.070679, 0.066956, -0.080170
484, 4830000.000000,0.073242, -1.000000, 0.204468,0.290741, 0.010834, -0.481934,0.070679, 0.066956, -0.080170
485, 4840000.000000,0.064117, -1.000000, 0.223969,0.290741, 0.010834, -0.481934,0.070679, 0.066956, -0.080170
486, 4850000.000000,0.064117, -1.000000, 0.223969,0.290741, -0.082916, -0.530182,0.086914, 0.054626, -0.102966
487, 4860000.000000,0.118347, -1.000000, 0.268799,0.412201, -0.084534, -0.530182,0.086914, 0.054626, -0.102966
488, 4870000.000000,0.118347, -1.000000, 0.268799,0.412201, -0.084534, -0.530182,0.086914, 0.054626, -0.102966
489, 4880000.000000,0.178833, -1.000000, 0.371643,0.412201, -0.084534, -0.491119,0.122742, 0.040222, -0.108368
490, 4890000.000000,0.178833, -1.000000, 0.371643,0.917999, -0.272308, -0.490479,0.122742, 0.040222, -0.108368
491, 4900000.000000,0.112030, -1.000000, 0.476257,0.917999, -0.272308, -0.490479,0.122742, 0.040222, -0.108368
492, 4910000.000000,0.112030, -1.000000, 0.476257,0.917999, -0.272308, -0.490479,0.122742, 0.040222, -0.108368
493, 4920000.000000,0.063416, -0.981750, 0.446960,0.917999, -0.018280, -0.018463,0.148682, 0.025085, -0.086029
494, 4930000.000000,0.063416, -0.981750, 0.446960,0.999756, -0.018280, -0.018463,0.148682, 0.025085, -0.086029
495, 4940000.000000,0.138000, -0.710114, 0.342468,0.999756, -0.018280, -0.018463,0.148682, 0.025085, -0.086029
496, 4950000.000000,0.138000, -0.710114, 0.342468,0.999756, -0.018280, -0.018463,0.148682, 0.025085, -0.086029
497, 4960000.000000,0.138000, -0.405426, 0.142761,0.999756, -0.018280, -0.127838,0.160553, 0.016876, -0.068146
498, 4970000.000000,0.288452, -0.404602, 0.142761,0.999756, -0.010284, -0.128632,0.160553, 0.016876, -0.068146
499, 4980000.000000,0.288452, -0.404602, 0.142761,0.999756, -0.010284, -0.128632,0.160553, 0.016876, -0.068146
500, 4990000.000000,0.373169, -0.189301, -0.018829,0.999756, -0.010284, -0.128632,0.160553, 0.016876, -0.068146
501, 5000000.000000,0.373169, -0.189301, -0.018829,0.999756, -0.010284, -0.128632,0.160553, 0.016876, -0.066345
502, 5010000.000000,0.364563, 0.077789, -0.070831,0.999756, -0.231232, 0.314392,0.164703, 0.006989, -0.066345
503, 5020000.000000,0.364563, 0.077789, -0.070831,0.999756, -0.231232, 0.314392,0.164703, 0.006989, -0.066345
504, 5030000.000000,0.292084, 0.516022, -0.083313,0.999756, -0.231232, 0.314392,0.164703, 0.006989, -0.066345
505, 5040000.000000,0.292084, 0.516022, -0.083313,0.999756, -0.231232, 0.314392,0.164703, 0.006989, -0.066345
506, 5050000.000000,0.192383, 0.933929, -0.069397,0.999756, -0.017578, 0.114685,0.162170, -0.001617, -0.069885
507, 5060000.000000,0.192383, 0.933929, -0.069397,0.999756, -0.017578, 0.114685,0.162170, -0.001617, -0.069885
508, 5070000.000000,0.192383, 0.933929, -0.280334,0.999756, -0.017578, 0.114685,0.162170, -0.001617, -0.069885
509, 5080000.000000,-0.110229, 0.984375, -0.279175,0.999756, -0.017578, 0.114685,0.162170, -0.001617, -0.069885
510, 5090000.000000,-0.110229, 0.984375, -0.279175,0.006287, -0.817322, -0.948395,0.167145, -0.015167, -0.074097
511, 5100000.000000,-0.692383, 0.984436, 0.054810,0.006287, -0.817322, -0.948395,0.167145, -0.015167, -0.074097
512, 5110000.000000,-0.692383, 0.984436, 0.054810,0.006287, -0.817322, -0.948395,0.167145, -0.015167, -0.074097
513, 5120000.000000,-0.286469, 0.378784, 0.017395,0.006287, -0.817322, -0.948395,0.167145, -0.015167, -0.074097
514, 5130000.000000,-0.286469, 0.378784, 0.017395,-0.222229, 0.895508, -0.409882,0.162689, -0.012360, -0.074890
515, 5140000.000000,0.430969, 0.567749, -0.068756,-0.222229, 0.895508, -0.409882,0.162689, -0.012360, -0.074890
516, 5150000.000000,0.430969, 0.567749, -0.068756,-0.222229, 0.895508, -0.409882,0.162689, -0.012360, -0.074890
517, 5160000.000000,0.430969, 0.567749, 0.380463,-0.222229, 0.895508, -0.409882,0.162689, -0.012360, -0.074890
518, 5170000.000000,-0.881317, 0.164276, 0.380463,0.208679, -0.527557, -0.046631,0.160431, -0.025787, -0.068359
519, 5180000.000000,-0.881317, 0.164276, 0.380463,0.208679, -0.527557, -0.046631,0.160431, -0.025787, -0.068359
520, 5190000.000000,0.070251, 0.224823, -0.297760,0.208679, -0.527557, -0.046631,0.160431, -0.025787, -0.068359
521, 5200000.000000,0.070251, 0.224823, -0.297760,0.208679, -0.527557, -0.046631,0.160431, -0.025787, -0.068359
522, 5210000.000000,0.100220, 0.251740, 0.071533,-0.001465, 0.121185, -0.255127,0.159363, -0.028259, -0.079498
523, 5220000.000000,0.100220, 0.251740, 0.071533,-0.001465, 0.121185, -0.255127,0.159363, -0.028259, -0.079498
524, 5230000.000000,0.259552, 0.184570, -0.147339,-0.001465, 0.121185, -0.255127,0.159363, -0.028259, -0.079498
525, 5240000.000000,0.259552, 0.184570, -0.147339,-0.001465, 0.121185, -0.255127,0.159363, -0.028259, -0.079498
526, 5250000.000000,0.079865, 0.065918, -0.102173,0.043884, 0.001648, -0.317566,0.157684, -0.026031, -0.075348
527, 5260000.000000,0.078552, 0.065918, -0.102173,0.043884, 0.001648, -0.317566,0.157684, -0.026031, -0.075348
528, 5270000.000000,0.078552, 0.065918, -0.102173,0.043884, 0.001648, -0.317566,0.157684, -0.026031, -0.075348
529, 5280000.000000,-0.041260, 0.021118, 0.055695,0.043884, 0.001648, -0.317566,0.157684, -0.026031, -0.075348
530, 5290000.000000,-0.041260, 0.021118, 0.055695,-0.010803, -0.012573, -0.255371,0.160309, -0.023590, -0.072601
531, 5300000.000000,-0.001617, 0.000854, -0.060577,-0.010712, -0.012573, -0.255371,0.160309, -0.023590, -0.072601
532, 5310000.000000,-0.001617, 0.000854, -0.060577,-0.010712, -0.012573, -0.255371,0.160309, -0.023590, -0.072601
533, 5320000.000000,0.011414, 0.009033, 0.001526,-0.010712, -0.012573, -0.255371,0.160309, -0.023590, -0.072601
534, 5330000.000000,0.011414, 0.009033, 0.001526,-0.018524, -0.016449, -0.244263,0.163208, -0.024445, -0.078094
535, 5340000.000000,-0.028259, 0.019562, 0.014099,-0.023224, -0.016449, -0.244263,0.163208, -0.024445, -0.078094
536, 5350000.000000,-0.028259, 0.019562, 0.014099,-0.023224, -0.016449, -0.244263,0.163208, -0.024445, -0.078094
537, 5360000.000000,-0.028259, 0.019562, 0.014099,-0.023224, -0.016449, -0.244263,0.163208, -0.024445, -0.078094
538, 5370000.000000,0.002319, 0.037476, 0.011963,-0.023224, -0.016449, -0.244263,0.163513, -0.025696, -0.077667
539, 5380000.000000,0.002319, 0.037476, 0.011963,-0.037384, -0.021088, -0.249298,0.163513, -0.025696, -0.077667
540, 5390000.000000,0.034149, 0.106964, 0.076691,-0.037384, -0.021088, -0.249298,0.163513, -0.025696, -0.077667
541, 5400000.000000,0.034149, 0.106964, 0.076691,-0.037384, -0.021088, -0.249298,0.163513, -0.025696, -0.077667
542, 5410000.000000,0.039917, 0.095154, 0.083618,-0.037384, -0.021088, -0.249298,0.163513, -0.025696, -0.082031
543, 5420000.000000,0.039917, 0.095154, 0.083618,-0.006287, -0.038116, -0.271301,0.163757, -0.023865, -0.082031
544, 5430000.000000,0.057343, 0.074371, 0.043121,-0.006287, -0.038116, -0.271301,0.163757, -0.023865, -0.082031
545, 5440000.000000,0.057343, 0.074371, 0.043121,-0.006287, -0.038116, -0.271301,0.163757, -0.023865, -0.082031
546, 5450000.000000,0.057343, 0.074371, 0.043121,-0.006287, -0.038116, -0.271301,0.163757, -0.023865, -0.082031
547, 5460000.000000,0.071533, 0.145020, 0.032898,-0.013428, -0.047089, -0.258453,0.157745, -0.025696, -0.079651
548, 5470000.000000,0.071533, 0.199707, 0.063629,-0.013428, -0.047089, -0.258453,0.157745, -0.025696, -0.079651
549, 5480000.000000,-0.005768, 0.196808, 0.063629,-0.013428, -0.047089, -0.258453,0.157745, -0.025696, -0.079651
550, 5490000.000000,-0.021393, 0.180420, 0.071228,-0.005005, -0.041351, -0.257477,0.152679, -0.029846, -0.078064
551, 5500000.000000,-0.019867, 0.180420, 0.071228,-0.005005, -0.041351, -0.257477,0.152679, -0.029846, -0.078064
552, 5510000.000000,-0.019867, 0.180420, 0.071228,-0.005005, -0.041351, -0.257477,0.152679, -0.029846, -0.078064
553, 5520000.000000,-0.047424, 0.265137, 0.064423,-0.005005, -0.041351, -0.257477,0.152679, -0.029846, -0.078064
554, 5530000.000000,-0.047424, 0.265137, 0.064423,-0.214447, -0.079803, -0.346558,0.152740, -0.032501, -0.084412
555, 5540000.000000,-0.159393, 0.569031, 0.058228,-0.214447, -0.079803, -0.346558,0.152740, -0.032501, -0.084412
556, 5550000.000000,-0.159393, 0.569031, 0.058228,-0.214447, -0.079803, -0.346558,0.152740, -0.032501, -0.084412
557, 5560000.000000,-0.275970, 0.824524, 0.107300,-0.214447, -0.079803, -0.346558,0.152740, -0.032501, -0.084412
558, 5570000.000000,-0.275970, 0.824524, 0.107300,-0.011322, -0.077209, -0.670715,0.137024, -0.033112, -0.094452
559, 5580000.000000,-0.229156, 0.989166, 0.115479,-0.014404, -0.077209, -0.670715,0.137024, -0.033112, -0.094452
560, 5590000.000000,-0.229156, 0.989166, 0.115479,-0.014404, -0.077209, -0.670715,0.137024, -0.033112, -0.094452
561, 5600000.000000,-0.065094, 0.989258, -0.001343,-0.014404, -0.077209, -0.670715,0.137024, -0.033112, -0.094452
562, 5610000.000000,-0.065216, 0.989258, -0.001343,0.050690, 0.000641, -0.505768,0.113159, -0.034180, -0.113037
563, 5620000.000000,-0.065216, 0.989258, -0.001343,0.050690, 0.000641, -0.505768,0.113159, -0.034180, -0.113037
564, 5630000.000000,0.185852, 0.989258, -0.163757,0.050690, 0.000641, -0.505768,0.113159, -0.034180, -0.113037
565, 5640000.000000,0.185852, 0.989258, -0.163757,0.050690, 0.000641, -0.505768,0.113159, -0.034180, -0.113037
566, 5650000.000000,0.132477, 0.989258, -0.243896,0.050690, -0.249359, 0.377502,0.074402, -0.033905, -0.119324
567, 5660000.000000,0.132477, 0.989258, -0.243896,-0.324646, -0.245026, 0.377502,0.074402, -0.033905, -0.119324
568, 5670000.000000,0.092957, 0.989258, 0.025299,-0.324646, -0.245026, 0.377502,0.074402, -0.033905, -0.119324
569, 5680000.000000,0.092957, 0.989258, 0.025299,-0.324646, -0.245026, 0.377502,0.074402, -0.033905, -0.119324
570, 5690000.000000,0.485809, 0.973053, 0.410095,0.300903, -0.233704, -0.999756,0.045715, -0.029327, -0.119629
571, 5700000.000000,0.485809, 0.973053, 0.410095,0.300903, -0.233704, -0.999756,0.045715, -0.029327, -0.119629
572, 5710000.000000,0.530701, 0.980621, 0.133972,0.300903, -0.233704, -0.999756,0.045715, -0.029327, -0.119629
573, 5720000.000000,0.530701, 0.980621, 0.133972,0.300903, -0.233704, -0.999756,0.045715, -0.029327, -0.119629
574, 5730000.000000,0.683228, 0.905151, 0.220215,-0.111023, 0.276062, -0.999756,0.041992, -0.023804, -0.113342
575, 5740000.000000,0.683228, 0.905151, 0.220215,-0.111023, 0.276062, -0.999756,0.041992, -0.023804, -0.113342
576, 5750000.000000,0.415924, 0.563416, 0.001373,-0.111023, 0.276062, -0.999756,0.041992, -0.023804, -0.113342
577, 5760000.000000,0.415924, 0.563416, 0.001373,-0.111023, 0.276062, -0.999756,0.041992, -0.023804, -0.113342
578, 5770000.000000,0.415924, 0.563416, -0.135376,-0.272034, 0.214600, -0.770416,0.041656, -0.016510, -0.108826
579, 5780000.000000,0.480072, 0.449890, -0.135376,-0.272034, 0.214600, -0.770416,0.041656, -0.016510, -0.108826
580, 5790000.000000,0.480072, 0.449890, -0.135376,-0.272034, 0.214600, -0.770416,0.041656, -0.016510, -0.108826
581, 5800000.000000,0.481476, 0.440796, -0.244385,-0.272034, 0.214600, -0.770416,0.041656, -0.016510, -0.108826
582, 5810000.000000,0.481476, 0.440796, -0.244385,-0.435547, 0.242798, -0.639008,0.053375, -0.014160, -0.100861
583, 5820000.000000,0.316864, 0.431244, -0.513245,-0.435547, 0.242798, -0.639008,0.053375, -0.014160, -0.100861
584, 5830000.000000,0.316864, 0.431244, -0.513245,-0.435547, 0.242798, -0.639008,0.053375, -0.014160, -0.100861
585, 5840000.000000,0.235504, 0.350769, -0.631989,-0.435547, 0.242798, -0.639008,0.053375, -0.014160, -0.100861
586, 5850000.000000,0.235504, 0.350769, -0.631989,-0.341797, -0.073822, -0.786285,0.069458, -0.011139, -0.094879
587, 5860000.000000,0.235504, 0.350769, -0.631989,-0.340179, -0.073822, -0.786285,0.069458, -0.011139, -0.094879
588, 5870000.000000,0.166992, 0.173553, -0.639435,-0.340179, -0.073822, -0.786285,0.069458, -0.011139, -0.094879
589, 5880000.000000,0.166992, 0.173553, -0.639435,-0.340179, -0.073822, -0.786285,0.069458, -0.011139, -0.094879
590, 5890000.000000,0.071503, -0.088440, -0.633301,-0.340179, -0.073822, -0.725067,0.086121, -0.007019, -0.092194
591, 5900000.000000,0.071503, -0.088440, -0.633301,-0.338928, -0.265228, -0.725067,0.086121, -0.007019, -0.092194
592, 5910000.000000,0.003876, -0.374359, -0.485046,-0.338928, -0.265228, -0.725067,0.086121, -0.007019, -0.092194
593, 5920000.000000,0.003876, -0.374359, -0.485046,-0.338928, -0.265228, -0.725067,0.086121, -0.007019, -0.092194
594, 5930000.000000,-0.046631, -0.637604, -0.276093,-0.338928, -0.227631, -0.506104,0.102448, -0.007843, -0.067291
595, 5940000.000000,-0.046631, -0.637604, -0.276093,-0.293793, -0.227631, -0.506104,0.102448, -0.007843, -0.067291
596, 5950000.000000,-0.045044, -0.838562, -0.138763,-0.293793, -0.227631, -0.506104,0.102448, -0.007843, -0.067291
597, 5960000.000000,-0.045044, -0.838562, -0.138763,-0.293793, -0.227631, -0.506104,0.102448, -0.007843, -0.067291
598, 5970000.000000,-0.045044, -0.838562, -0.138763,-0.293793, -0.227631, -0.427979,0.113953, -0.011139, -0.056061
599, 5980000.000000,0.016693, -0.975281, -0.041107,-0.172424, -0.129700, -0.427795,0.113953, -0.011139, -0.056061
600, 5990000.000000,0.016693, -0.975281, -0.041107,-0.172424, -0.129700, -0.427795,0.113953, -0.011139, -0.056061
601, 6000000.000000,0.103973, -1.000000, 0.027588,-0.172424, -0.129700, -0.427795,0.113953, -0.011139, -0.056061
602, 6010000.000000,0.103973, -1.000000, 0.027588,-0.172424, -0.129700, -0.427795,0.113953, -0.010773, -0.047852
603, 6020000.000000,0.189423, -1.000000, 0.075195,-0.010254, -0.065857, -0.373138,0.114075, -0.010773, -0.047852
604, 6030000.000000,0.189423, -1.000000, 0.075195,-0.010254, -0.065857, -0.373138,0.114075, -0.010773, -0.047852
605, 6040000.000000,0.189423, -1.000000, 0.113129,-0.010254, -0.065857, -0.373138,0.114075, -0.010773, -0.047852
606, 6050000.000000,0.250519, -1.000000, 0.113129,-0.010254, -0.065857, -0.373138,0.114075, -0.010773, -0.047852
607, 6060000.000000,0.250519, -1.000000, 0.113129,0.102234, -0.038452, -0.329163,0.128693, -0.006348, -0.041595
608, 6070000.000000,0.285980, -1.000000, 0.146179,0.102234, -0.038452, -0.329163,0.128693, -0.006348, -0.041595
609, 6080000.000000,0.285980, -1.000000, 0.146179,0.102234, -0.038452, -0.329163,0.128693, -0.006348, -0.041595
610, 6090000.000000,0.294983, -1.000000, 0.173401,0.102234, -0.038452, -0.329163,0.144318, -0.000824, -0.012970
611, 6100000.000000,0.294983, -1.000000, 0.173401,0.196899, -0.009216, -0.407074,0.146454, -0.000824, -0.012970
612, 6110000.000000,0.284912, -1.000000, 0.199341,0.196899, -0.009216, -0.407074,0.146454, -0.000824, -0.012970
613, 6120000.000000,0.284912, -1.000000, 0.199341,0.196899, -0.009216, -0.407074,0.146454, -0.000824, -0.012970
614, 6130000.000000,0.267731, -1.000000, 0.219818,0.196899, -0.009216, -0.414886,0.147858, -0.008514, 0.019562
615, 6140000.000000,0.267731, -1.000000, 0.219818,0.236816, 0.035400, -0.414612,0.147858, -0.008514, 0.019562
616, 6150000.000000,0.252289, -1.000000, 0.228210,0.236816, 0.035400, -0.414612,0.147858, -0.008514, 0.019562
617, 6160000.000000,0.252289, -1.000000, 0.228210,0.236816, 0.035400, -0.414612,0.147858, -0.008514, 0.019562
618, 6170000.000000,0.250397, -1.000000, 0.227661,0.236816, 0.035400, -0.414612,0.147858, -0.017578, 0.044281
619, 6180000.000000,0.250397, -1.000000, 0.227661,0.250946, 0.074066, -0.475067,0.136017, -0.017578, 0.044281
620, 6190000.000000,0.250397, -1.000000, 0.227661,0.250946, 0.074066, -0.475067,0.136017, -0.017578, 0.044281
621, 6200000.000000,0.279053, -1.000000, 0.225128,0.250946, 0.074066, -0.475067,0.136017, -0.017578, 0.044281
622, 6210000.000000,0.279053, -1.000000, 0.225128,0.250946, 0.074066, -0.475067,0.136017, -0.017578, 0.044067
623, 6220000.000000,0.336487, -1.000000, 0.231079,0.329071, 0.038727, -0.560791,0.104187, -0.027100, 0.044067
624, 6230000.000000,0.336487, -1.000000, 0.231079,0.329071, 0.038727, -0.560791,0.104187, -0.027100, 0.044067
625, 6240000.000000,0.378693, -1.000000, 0.263123,0.329071, 0.038727, -0.560791,0.104187, -0.027100, 0.044067
626, 6250000.000000,0.378693, -1.000000, 0.263123,0.329071, 0.038727, -0.560791,0.104187, -0.027100, 0.044067
627, 6260000.000000,0.384644, -1.000000, 0.365021,0.386658, -0.168182, -0.734894,0.098511, -0.012970, -0.001404
628, 6270000.000000,0.384644, -1.000000, 0.365021,0.386658, -0.168182, -0.734894,0.098511, -0.012970, -0.001404
629, 6280000.000000,0.384644, -1.000000, 0.521271,0.386658, -0.168182, -0.734894,0.098511, -0.012970, -0.001404
630, 6290000.000000,0.299927, -1.000000, 0.521393,0.386658, -0.168182, -0.734894,0.145752, -0.012299, 0.010773
631, 6300000.000000,0.299927, -1.000000, 0.616425,0.999756, -0.198029, -0.792542,0.145752, -0.012299, 0.010773
632, 6310000.000000,0.156281, -1.000000, 0.616425,0.999756, -0.198029, -0.792542,0.145752, -0.012299, 0.010773
633, 6320000.000000,0.156281, -1.000000, 0.616425,0.999756, -0.198029, -0.792542,0.145752, -0.012299, 0.010773
634, 6330000.000000,0.015228, -1.000000, 0.589233,0.999756, -0.198029, -0.792542,0.145752, -0.035736, 0.072632
635, 6340000.000000,0.015228, -1.000000, 0.589233,0.999756, 0.091583, -0.014069,0.180542, -0.033508, 0.072632
636, 6350000.000000,0.017181, -0.956299, 0.381317,0.999756, 0.091583, -0.014069,0.180542, -0.033508, 0.072632
637, 6360000.000000,0.017181, -0.956299, 0.381317,0.999756, 0.091583, -0.014069,0.180542, -0.033508, 0.072632
638, 6370000.000000,0.128387, -0.698395, 0.226196,0.999756, 0.091583, -0.014069,0.180542, -0.033508, 0.072632
639, 6380000.000000,0.128387, -0.698395, 0.226196,0.999756, -0.240814, -0.233368,0.188110, -0.060455, 0.117828
640, 6390000.000000,0.142914, -0.489471, 0.162811,0.999756, -0.240814, -0.233368,0.188110, -0.060455, 0.117828
641, 6400000.000000,0.142914, -0.489471, 0.162811,0.999756, -0.240814, -0.233368,0.188110, -0.060455, 0.117828
642, 6410000.000000,0.142914, -0.489471, 0.162811,0.999756, -0.240814, -0.233368,0.188110, -0.060455, 0.117828
643, 6420000.000000,0.157867, 0.133209, 0.070953,0.999756, -0.143372, 0.561493,0.205292, -0.082184, 0.149170
644, 6430000.000000,0.157867, 0.133209, 0.070953,0.999756, -0.143372, 0.561493,0.205292, -0.082184, 0.149170
645, 6440000.000000,0.121765, 0.673492, -0.014221,0.999756, -0.143372, 0.561493,0.205292, -0.082184, 0.149170
646, 6450000.000000,0.121765, 0.673492, -0.014221,0.999756, -0.143372, 0.561493,0.205292, -0.082184, 0.149170
647, 6460000.000000,0.033295, 0.981598, -0.148407,0.999756, 0.068604, 0.215576,0.239410, -0.100098, 0.149658
648, 6470000.000000,0.033295, 0.981598, -0.148407,0.999756, 0.068604, 0.215576,0.239410, -0.100098, 0.149658
649, 6480000.000000,-0.050385, 0.989258, -0.240417,0.999756, 0.068604, 0.215576,0.239410, -0.100098, 0.149658
650, 6490000.000000,-0.050385, 0.989258, -0.240417,0.999756, 0.068604, 0.215576,0.239410, -0.100098, 0.149658
651, 6500000.000000,-0.333191, 0.989258, -0.156586,-0.070740, -0.382385, -0.618042,0.282104, -0.110046, 0.148499
652, 6510000.000000,-0.333191, 0.989258, -0.156586,-0.070740, -0.382385, -0.618042,0.282104, -0.110046, 0.148499
653, 6520000.000000,-0.333191, 0.973633, 0.126984,-0.070740, -0.382385, -0.618042,0.282104, -0.110046, 0.148499
654, 6530000.000000,-0.765717, 0.974670, 0.126984,-0.070740, -0.382385, -0.618042,0.282104, -0.110046, 0.148499
655, 6540000.000000,-0.765717, 0.974670, 0.126984,0.806305, 0.780701, -0.753693,0.303101, -0.112701, 0.142883
656, 6550000.000000,-0.020416, 0.326904, 0.085266,0.806305, 0.780701, -0.753693,0.303101, -0.112701, 0.142883
657, 6560000.000000,-0.020416, 0.326904, 0.085266,0.806305, 0.780701, -0.753693,0.303101, -0.112701, 0.142883
658, 6570000.000000,-0.272705, 0.364166, -0.009033,0.806305, 0.780701, -0.753693,0.303101, -0.112701, 0.142883
659, 6580000.000000,-0.272705, 0.364166, -0.009033,0.043488, -0.154327, -0.431976,0.305389, -0.113129, 0.163422
660, 6590000.000000,-0.748596, -0.052002, 0.161926,0.043488, -0.154327, -0.431976,0.305389, -0.113129, 0.163422
661, 6600000.000000,-0.748596, -0.052002, 0.161926,0.043488, -0.154327, -0.431976,0.305389, -0.113129, 0.163422
662, 6610000.000000,-0.248260, 0.249847, -0.123901,0.043488, -0.154327, -0.431976,0.305389, -0.113129, 0.163422
663, 6620000.000000,-0.248260, 0.249847, -0.123901,0.051392, -0.000214, -0.318024,0.309814, -0.109406, 0.153595
664, 6630000.000000,-0.248260, 0.249847, 0.055786,0.051392, -0.000214, -0.318024,0.309814, -0.109406, 0.153595
665, 6640000.000000,-0.027374, 0.153046, 0.055054,0.051392, -0.000214, -0.318024,0.309814, -0.109406, 0.153595
666, 6650000.000000,-0.027374, 0.153046, 0.055054,0.051392, -0.000214, -0.318024,0.309814, -0.109406, 0.153595
667, 6660000.000000,0.000763, 0.032379, -0.102264,-0.010040, -0.013519, -0.274323,0.311310, -0.106476, 0.157013
668, 6670000.000000,0.000763, 0.032379, -0.102264,-0.010040, -0.013519, -0.274323,0.311310, -0.106476, 0.157013
669, 6680000.000000,-0.031372, -0.001038, -0.027344,-0.010040, -0.013519, -0.274323,0.311310, -0.106476, 0.157013
670, 6690000.000000,-0.031372, -0.001038, -0.027344,-0.010040, -0.013519, -0.274323,0.311310, -0.106476, 0.157013
671, 6700000.000000,-0.040833, -0.009613, 0.006927,-0.024994, -0.022400, -0.249786,0.309387, -0.109070, 0.153442
672, 6710000.000000,-0.040833, -0.009613, 0.006927,-0.024994, -0.022400, -0.249786,0.309387, -0.109070, 0.153442
673, 6720000.000000,-0.040833, -0.009613, 0.006927,-0.024994, -0.022400, -0.249786,0.309387, -0.109070, 0.153442
674, 6730000.000000,-0.032867, 0.019257, 0.009674,-0.024994, -0.022400, -0.249786,0.309387, -0.109070, 0.153442
675, 6740000.000000,-0.032867, 0.019257, 0.009674,-0.024994, -0.022400, -0.249786,0.310822, -0.110687, 0.148956
676, 6750000.000000,-0.001587, 0.110779, 0.002441,-0.068390, -0.026825, -0.246643,0.310822, -0.110687, 0.148956
677, 6760000.000000,-0.001587, 0.110779, 0.002441,-0.068390, -0.026825, -0.246643,0.310822, -0.110687, 0.148956
678, 6770000.000000,-0.004974, 0.172516, 0.029114,-0.068390, -0.026825, -0.246643,0.310822, -0.110687, 0.148956
679, 6780000.000000,-0.004974, 0.172516, 0.029114,-0.068390, -0.026825, -0.246643,0.310822, -0.110687, 0.148956
680, 6790000.000000,-0.004974, 0.172516, 0.029114,0.024506, -0.034698, -0.284485,0.315643, -0.111328, 0.150757
681, 6800000.000000,0.090637, 0.185822, 0.027069,0.024506, -0.034698, -0.284485,0.315643, -0.111328, 0.150757
682, 6810000.000000,0.090637, 0.185822, 0.027069,0.024506, -0.034698, -0.284485,0.315643, -0.111328, 0.150757
683, 6820000.000000,0.063446, 0.175934, 0.005157,0.024506, -0.034698, -0.284485,0.315643, -0.111328, 0.150757
684, 6830000.000000,0.063446, 0.175934, 0.005157,0.024506, -0.034698, -0.251373,0.316681, -0.114563, 0.145752
685, 6840000.000000,0.063446, 0.175934, 0.005157,-0.000610, -0.044342, -0.251373,0.316681, -0.114563, 0.145752
686, 6850000.000000,0.074554, 0.224365, 0.030640,-0.000610, -0.044342, -0.251373,0.316681, -0.114563, 0.145752
687, 6860000.000000,0.074554, 0.224365, 0.030640,-0.000610, -0.044342, -0.251373,0.316681, -0.114563, 0.145752
688, 6870000.000000,0.079773, 0.230927, 0.019684,-0.000610, -0.044342, -0.251373,0.316681, -0.114563, 0.145752
689, 6880000.000000,0.079773, 0.230927, 0.019684,-0.166565, -0.007050, -0.270691,0.318420, -0.116211, 0.137390
690, 6890000.000000,0.079773, 0.230927, 0.019684,-0.166565, -0.007050, -0.270691,0.318420, -0.116211, 0.137390
691, 6900000.000000,0.027863, 0.447815, 0.032532,-0.166565, -0.007050, -0.270691,0.318420, -0.116211, 0.137390
692, 6910000.000000,0.027863, 0.447815, 0.032532,-0.166565, -0.007050, -0.270691,0.318420, -0.116211, 0.137390
693, 6920000.000000,0.008179, 0.883026, -0.012573,-0.166565, -0.007050, -0.531464,0.332489, -0.113861, 0.120270
694, 6930000.000000,0.008179, 0.883026, -0.012573,-0.513672, -0.061676, -0.531464,0.332489, -0.113861, 0.120270
695, 6940000.000000,0.058167, 0.967285, -0.038605,-0.513672, -0.061676, -0.531464,0.332489, -0.113861, 0.120270
696, 6950000.000000,0.058167, 0.967285, -0.038605,-0.513672, -0.061676, -0.531464,0.332489, -0.113861, 0.120270
697, 6960000.000000,0.558167, 0.989258, -0.175903,-0.513672, -0.174866, -0.695038,0.346619, -0.107208, 0.051880
698, 6970000.000000,0.555176, 0.989258, -0.175903,-0.417603, -0.174866, -0.695038,0.346619, -0.107208, 0.051880
699, 6980000.000000,0.555176, 0.989258, -0.175903,-0.417603, -0.174866, -0.695038,0.346619, -0.107208, 0.051880
700, 6990000.000000,0.674835, 0.989258, -0.333679,-0.417603, -0.174866, -0.695038,0.346619, -0.107208, 0.051880
701, 7000000.000000,0.674835, 0.989258, -0.333679,-0.417603, -0.174866, -0.695038,0.343689, -0.090637, -0.063660
702, 7010000.000000,0.689453, 0.989258, -0.454773,-0.032745, -0.101471, 0.263977,0.343689, -0.090637, -0.063660
703, 7020000.000000,0.689453, 0.989258, -0.454773,-0.032745, -0.101471, 0.263977,0.343689, -0.090637, -0.063660
704, 7030000.000000,0.633759, 0.986816, -0.644775,-0.032745, -0.101471, 0.263977,0.343689, -0.090637, -0.063660
705, 7040000.000000,0.633759, 0.986816, -0.644775,-0.032745, -0.101471, 0.263977,0.343689, -0.090637, -0.063660
706, 7050000.000000,0.633759, 0.986816, -0.644775,0.515381, -0.417389, -0.998474,0.329926, -0.067505, -0.112000
707, 7060000.000000,0.408051, 0.941864, -0.398529,0.515381, -0.417389, -0.998474,0.329926, -0.067505, -0.112000
708, 7070000.000000,0.408051, 0.941864, -0.398529,0.515381, -0.417389, -0.998474,0.329926, -0.067505, -0.112000
709, 7080000.000000,0.355682, 0.970032, -0.253967,0.515381, -0.417389, -0.998474,0.329926, -0.067505, -0.112000
710, 7090000.000000,0.355682, 0.970032, -0.253967,0.515381, -0.214691, -0.976746,0.330627, -0.056763, -0.095551
711, 7100000.000000,0.355682, 0.970032, -0.253967,-0.095093, -0.214691, -0.976746,0.330627, -0.056763, -0.095551
712, 7110000.000000,0.170807, 0.705780, -0.238159,-0.095093, -0.214691, -0.976746,0.330627, -0.056763, -0.095551
713, 7120000.000000,0.170807, 0.705780, -0.238159,-0.095093, -0.214691, -0.976746,0.330627, -0.056763, -0.095551
714, 7130000.000000,-0.017487, 0.559265, -0.260071,-0.095093, -0.214691, -0.976746,0.330627, -0.056763, -0.095551
715, 7140000.000000,-0.017487, 0.559265, -0.260071,-0.272217, -0.043304, -0.613068,0.341492, -0.048920, -0.066589
716, 7150000.000000,-0.017487, 0.559265, -0.279816,-0.272217, -0.043304, -0.613068,0.341492, -0.048920, -0.066589
717, 7160000.000000,-0.060120, 0.694489, -0.279816,-0.272217, -0.043304, -0.613068,0.341492, -0.048920, -0.066589
718, 7170000.000000,-0.060120, 0.694489, -0.279816,-0.272217, -0.043304, -0.613068,0.341492, -0.048920, -0.066589
719, 7180000.000000,-0.033722, 0.779968, -0.322601,-0.272217, 0.037811, -0.752747,0.362091, -0.043701, -0.048126
720, 7190000.000000,-0.033722, 0.779968, -0.322601,-0.515869, 0.037811, -0.752747,0.362091, -0.043701, -0.048126
721, 7200000.000000,0.161438, 0.781067, -0.499664,-0.515869, 0.037811, -0.752747,0.362091, -0.043701, -0.048126
722, 7210000.000000,0.161438, 0.781067, -0.499664,-0.515869, 0.037811, -0.752747,0.362091, -0.043701, -0.048126
723, 7220000.000000,0.202850, 0.595154, -0.574646,-0.399872, -0.150116, -0.982300,0.386871, -0.030609, 0.002106
724, 7230000.000000,0.202850, 0.595154, -0.574646,-0.399872, -0.150116, -0.982300,0.386871, -0.030609, 0.002106
725, 7240000.000000,0.122101, 0.359497, -0.588654,-0.399872, -0.150116, -0.982300,0.386871, -0.030609, 0.002106
726, 7250000.000000,0.122101, 0.359497, -0.588654,-0.399872, -0.150116, -0.982300,0.386871, -0.030609, 0.002106
727, 7260000.000000,-0.028595, 0.132660, -0.532501,-0.448242, -0.336517, -0.878418,0.404541, -0.025024, 0.066895
728, 7270000.000000,-0.028595, 0.132660, -0.532501,-0.448242, -0.336517, -0.878418,0.404541, -0.025024, 0.066895
729, 7280000.000000,-0.028595, 0.132660, -0.532501,-0.448242, -0.336517, -0.878418,0.404541, -0.025024, 0.066895
730, 7290000.000000,-0.165253, -0.062225, -0.411041,-0.448242, -0.336517, -0.878418,0.404541, -0.025024, 0.066895
731, 7300000.000000,-0.165253, -0.062225, -0.411041,-0.396729, -0.299255, -0.709717,0.398438, -0.028076, 0.166656
732, 7310000.000000,-0.326599, -0.256897, -0.353607,-0.396729, -0.299255, -0.709717,0.398438, -0.028076, 0.166656
733, 7320000.000000,-0.326599, -0.256897, -0.353607,-0.396729, -0.299255, -0.709717,0.398438, -0.028076, 0.166656
734, 7330000.000000,-0.429321, -0.497620, -0.311432,-0.396729, -0.299255, -0.709717,0.398438, -0.028076, 0.166656
735, 7340000.000000,-0.429321, -0.497620, -0.311432,-0.396729, -0.299255, -0.535004,0.341400, -0.031219, 0.248718
736, 7350000.000000,-0.429321, -0.497620, -0.051605,-0.385468, -0.266907, -0.535004,0.341400, -0.031219, 0.248718
737, 7360000.000000,-0.409637, -0.693939, -0.051605,-0.385468, -0.266907, -0.535004,0.341400, -0.031219, 0.248718
738, 7370000.000000,-0.280121, -0.910431, -0.002045,-0.385468, -0.266907, -0.535004,0.341400, -0.031219, 0.248718
739, 7380000.000000,-0.280121, -0.910431, -0.002045,-0.201630, -0.165924, -0.555725,0.221588, -0.044403, 0.298950
740, 7390000.000000,-0.280121, -0.997314, -0.013672,-0.201630, -0.165924, -0.555725,0.221588, -0.044403, 0.298950
741, 7400000.000000,-0.118774, -0.997314, -0.013672,-0.201630, -0.165924, -0.555725,0.221588, -0.044403, 0.298950
742, 7410000.000000,-0.118774, -0.997314, -0.013672,-0.201630, -0.165924, -0.555725,0.221588, -0.044403, 0.298950
743, 7420000.000000,-0.000183, -1.000000, 0.004272,0.008606, -0.256256, -0.486328,0.069183, -0.058533, 0.255432
744, 7430000.000000,-0.000183, -1.000000, 0.004272,0.008606, -0.256256, -0.486328,0.069183, -0.058533, 0.255432
745, 7440000.000000,0.040192, -1.000000, 0.065948,0.008606, -0.256256, -0.486328,0.069183, -0.058533, 0.255432
746, 7450000.000000,0.040192, -1.000000, 0.065948,0.008606, -0.256256, -0.486328,0.069183, -0.058533, 0.255432
747, 7460000.000000,0.010376, -1.000000, 0.220978,0.082886, -0.194275, -0.341705,-0.047974, -0.058655, 0.115753
748, 7470000.000000,0.010376, -1.000000, 0.220978,0.082886, -0.194275, -0.341705,-0.047974, -0.058655, 0.115753
749, 7480000.000000,0.094604, -1.000000, 0.263336,0.082886, -0.194275, -0.341705,-0.047974, -0.058655, 0.115753
750, 7490000.000000,0.094604, -1.000000, 0.263336,0.082886, -0.194275, -0.341705,-0.047974, -0.058655, 0.115753
751, 7500000.000000,0.094604, -1.000000, 0.174500,0.241547, -0.103180, -0.437592,-0.035278, -0.034546, -0.019318
752, 7510000.000000,0.218872, -1.000000, 0.174500,0.241547, -0.103180, -0.437592,-0.035278, -0.034546, -0.019318
753, 7520000.000000,0.218872, -1.000000, 0.174500,0.241547, -0.103180, -0.437592,-0.035278, -0.034546, -0.019318
754, 7530000.000000,0.349854, -1.000000, 0.168274,0.241547, -0.103180, -0.437592,-0.035278, -0.034546, -0.019318
755, 7540000.000000,0.349854, -1.000000, 0.168274,0.314362, -0.075836, -0.550873,0.026367, 0.015106, -0.029816
756, 7550000.000000,0.439117, -1.000000, 0.190460,0.314362, -0.075836, -0.550873,0.026367, 0.015106, -0.029816
757, 7560000.000000,0.439117, -1.000000, 0.190460,0.314362, -0.075836, -0.550873,0.026367, 0.015106, -0.029816
758, 7570000.000000,0.497559, -1.000000, 0.207489,0.314362, -0.075836, -0.550873,0.026367, 0.015106, -0.029816
759, 7580000.000000,0.497559, -1.000000, 0.207489,0.416382, 0.084229, -0.625305,0.027374, 0.053925, -0.007233
760, 7590000.000000,0.563934, -1.000000, 0.195526,0.416382, 0.084229, -0.625305,0.027374, 0.053925, -0.007233
761, 7600000.000000,0.563934, -1.000000, 0.195526,0.416382, 0.084229, -0.625305,0.027374, 0.053925, -0.007233
762, 7610000.000000,0.649719, -1.000000, 0.179779,0.416382, 0.084229, -0.625305,0.027374, 0.053925, -0.007233
763, 7620000.000000,0.649719, -1.000000, 0.179779,0.513977, -0.040375, -0.770264,0.013367, 0.094727, -0.048370
764, 7630000.000000,0.677521, -1.000000, 0.235596,0.513977, -0.040375, -0.770264,0.013367, 0.094727, -0.048370
765, 7640000.000000,0.677521, -1.000000, 0.235596,0.513977, -0.040375, -0.770264,0.013367, 0.094727, -0.048370
766, 7650000.000000,0.599396, -1.000000, 0.395264,0.513977, -0.040375, -0.770264,0.013367, 0.094727, -0.071808
767, 7660000.000000,0.601288, -1.000000, 0.395264,0.704620, -0.211548, -0.842041,0.039124, 0.119659, -0.070618
768, 7670000.000000,0.601288, -1.000000, 0.590576,0.704620, -0.211548, -0.842041,0.039124, 0.119659, -0.070618
769, 7680000.000000,0.432922, -1.000000, 0.588470,0.704620, -0.211548, -0.842041,0.039124, 0.119659, -0.070618
770, 7690000.000000,0.432922, -1.000000, 0.588470,0.704620, -0.211548, -0.842041,0.039124, 0.119659, -0.070618
771, 7700000.000000,0.273163, -1.000000, 0.701447,0.963348, 0.064880, -0.710052,0.074432, 0.125946, -0.062988
772, 7710000.000000,0.273163, -1.000000, 0.701447,0.963348, 0.064880, -0.710052,0.074432, 0.125946, -0.062988
773, 7720000.000000,0.253021, -1.000000, 0.669434,0.963348, 0.064880, -0.710052,0.074432, 0.125946, -0.062988
774, 7730000.000000,0.253021, -1.000000, 0.669434,0.963348, 0.064880, -0.710052,0.074432, 0.125946, -0.062988
775, 7740000.000000,0.423004, -1.000000, 0.554016,0.929504, 0.182007, -0.401367,0.099945, 0.122620, -0.056610
776, 7750000.000000,0.423004, -1.000000, 0.554016,0.929504, 0.182007, -0.401367,0.099945, 0.122620, -0.056610
777, 7760000.000000,0.423004, -1.000000, 0.358704,0.929504, 0.182007, -0.401367,0.099945, 0.122620, -0.056610
778, 7770000.000000,0.346619, -0.976532, 0.356049,0.929504, 0.182007, -0.401367,0.118042, 0.118256, -0.047729
779, 7780000.000000,0.068817, -0.691406, 0.209290,0.999756, -0.137512, 0.053497,0.118042, 0.118256, -0.047729
780, 7790000.000000,0.068817, -0.691406, 0.209290,0.999756, -0.137512, 0.053497,0.118042, 0.118256, -0.047729
781, 7800000.000000,0.036407, -0.348694, 0.141296,0.999756, -0.137512, 0.053497,0.118042, 0.118256, -0.047729
782, 7810000.000000,0.036407, -0.348694, 0.141296,0.999756, -0.137512, 0.373810,0.127197, 0.117065, -0.040222
783, 7820000.000000,0.036407, -0.348694, 0.141296,0.999756, -0.112305, 0.368164,0.127197, 0.117065, -0.040222
784, 7830000.000000,0.298370, -0.079163, 0.110657,0.999756, -0.112305, 0.368164,0.127197, 0.117065, -0.040222
785, 7840000.000000,0.298370, -0.079163, 0.110657,0.999756, -0.112305, 0.368164,0.127197, 0.117065, -0.040222
786, 7850000.000000,0.534637, 0.340332, 0.105591,0.999756, -0.112305, 0.368164,0.127197, 0.117065, -0.050415
787, 7860000.000000,0.534637, 0.340332, 0.105591,0.826996, 0.155579, 0.918915,0.133331, 0.118683, -0.050415
788, 7870000.000000,0.537567, 0.885651, 0.045258,0.826996, 0.155579, 0.918915,0.133331, 0.118683, -0.050415
789, 7880000.000000,0.537567, 0.885651, 0.045258,0.826996, 0.155579, 0.918915,0.133331, 0.118683, -0.050415
790, 7890000.000000,-0.017120, 0.989258, -0.363342,0.826996, 0.155579, 0.918915,0.133331, 0.118683, -0.073853
791, 7900000.000000,-0.017120, 0.989258, -0.363342,0.795929, 0.025574, -0.295563,0.125854, 0.125732, -0.073273
792, 7910000.000000,-0.017120, 0.989258, -0.710022,0.795929, 0.025574, -0.295563,0.125854, 0.125732, -0.073273
793, 7920000.000000,-0.520020, 0.989258, -0.710022,0.795929, 0.025574, -0.295563,0.125854, 0.125732, -0.073273
794, 7930000.000000,-0.520020, 0.989258, -0.710022,0.795929, 0.025574, -0.295563,0.125854, 0.125732, -0.073273
795, 7940000.000000,-0.932770, 0.987061, -0.218231,0.328857, -0.380981, -0.958801,0.102264, 0.120514, -0.106659
796, 7950000.000000,-0.932770, 0.987061, -0.218231,0.328857, -0.380981, -0.958801,0.102264, 0.120514, -0.106659
797, 7960000.000000,-0.489838, 0.506531, 0.247131,0.328857, -0.380981, -0.958801,0.102264, 0.120514, -0.106659
798, 7970000.000000,-0.489838, 0.506531, 0.247131,0.328857, -0.380981, -0.958801,0.102264, 0.120514, -0.106659
799, 7980000.000000,-0.372650, 0.436127, -0.176666,0.114136, -0.572357, -0.745026,0.098816, 0.114990, -0.103241
800, 7990000.000000,-0.370667, 0.436127, -0.176666,0.114136, -0.572357, -0.745026,0.098816, 0.114990, -0.103241
801, 8000000.000000,-0.591461, -0.001465, 0.159698,0.114136, -0.572357, -0.745026,0.098816, 0.114990, -0.103241
802, 8010000.000000,-0.591461, -0.001465, 0.159698,0.114136, -0.572357, -0.745026,0.083191, 0.103333, -0.108551
803, 8020000.000000,-0.218567, 0.293060, -0.114563,0.146027, -0.175690, -0.472748,0.085449, 0.103333, -0.108551
804, 8030000.000000,-0.218567, 0.293060, -0.114563,0.146027, -0.175690, -0.472748,0.085449, 0.103333, -0.108551
805, 8040000.000000,-0.218567, 0.293060, 0.033875,0.146027, -0.175690, -0.472748,0.085449, 0.103333, -0.108551
806, 8050000.000000,-0.145508, 0.010406, 0.032623,0.146027, -0.175690, -0.472748,0.085449, 0.103333, -0.116364
807, 8060000.000000,-0.145508, 0.010406, 0.032623,0.008087, -0.055725, -0.273590,0.101868, 0.112457, -0.114929
808, 8070000.000000,-0.085999, -0.028198, -0.087769,0.008087, -0.055725, -0.273590,0.101868, 0.112457, -0.114929
809, 8080000.000000,-0.085999, -0.028198, -0.087769,0.008087, -0.055725, -0.273590,0.101868, 0.112457, -0.114929
810, 8090000.000000,-0.052277, -0.006439, -0.010956,0.008087, -0.055725, -0.273590,0.101868, 0.112457, -0.114929
811, 8100000.000000,-0.052277, -0.006439, -0.010956,0.000946, -0.008698, -0.279419,0.101288, 0.110962, -0.107452
812, 8110000.000000,-0.036652, -0.018280, -0.015320,0.000946, -0.008698, -0.279419,0.101288, 0.110962, -0.107452
813, 8120000.000000,-0.038666, -0.018280, -0.015320,0.000946, -0.008698, -0.279419,0.101288, 0.110962, -0.107452
814, 8130000.000000,-0.038666, -0.010468, 0.007629,0.000946, -0.008698, -0.279419,0.101288, 0.110962, -0.107452
815, 8140000.000000,-0.022766, -0.007843, 0.007629,-0.058594, -0.019531, -0.221497,0.100433, 0.113190, -0.110626
816, 8150000.000000,-0.022766, -0.007843, 0.007629,-0.058594, -0.019531, -0.221497,0.100433, 0.113190, -0.110626
817, 8160000.000000,0.031097, 0.113281, 0.002869,-0.058594, -0.019531, -0.221497,0.100433, 0.113190, -0.110626
818, 8170000.000000,0.031097, 0.113281, 0.002869,-0.058594, -0.019531, -0.221497,0.100433, 0.113190, -0.110626
819, 8180000.000000,0.053955, 0.134247, 0.049835,-0.007660, -0.044342, -0.256500,0.096008, 0.113464, -0.113586
820, 8190000.000000,0.053955, 0.134247, 0.049835,-0.007660, -0.044342, -0.256500,0.096008, 0.113464, -0.113586
821, 8200000.000000,0.046295, 0.173889, 0.063354,-0.007660, -0.044342, -0.256500,0.096008, 0.113464, -0.113586
822, 8210000.000000,0.046295, 0.173889, 0.063354,-0.007660, -0.044342, -0.256500,0.096008, 0.113464, -0.107666
823, 8220000.000000,0.046204, 0.269348, 0.069855,0.036041, -0.038147, -0.254578,0.095642, 0.113495, -0.107666
824, 8230000.000000,0.046204, 0.269348, 0.069855,0.036041, -0.038147, -0.254578,0.095642, 0.113495, -0.107666
825, 8240000.000000,0.039062, 0.344604, 0.107483,0.036041, -0.038147, -0.254578,0.095642, 0.113495, -0.107666
826, 8250000.000000,0.039062, 0.344604, 0.107483,0.036041, -0.038147, -0.254578,0.095642, 0.113495, -0.107666
827, 8260000.000000,-0.007812, 0.677246, 0.092499,-0.127960, -0.030853, -0.334015,0.084351, 0.112854, -0.119843
828, 8270000.000000,-0.001953, 0.677246, 0.092499,-0.127960, -0.030853, -0.334015,0.084351, 0.112854, -0.119843
829, 8280000.000000,-0.001953, 0.677246, 0.092499,-0.127960, -0.030853, -0.334015,0.084351, 0.112854, -0.119843
830, 8290000.000000,0.006256, 0.953461, 0.061859,-0.127960, -0.030853, -0.334015,0.084351, 0.112854, -0.119843
831, 8300000.000000,0.006256, 0.953461, 0.061859,-0.436646, 0.278778, -0.712585,0.075012, 0.110657, -0.119354
832, 8310000.000000,0.332550, 0.989197, 0.033569,-0.436646, 0.278778, -0.712585,0.075012, 0.110657, -0.119354
833, 8320000.000000,0.332550, 0.989197, 0.033569,-0.436646, 0.278778, -0.712585,0.075012, 0.110657, -0.119354
834, 8330000.000000,0.667877, 0.989258, -0.233093,-0.436646, 0.278778, -0.712585,0.075012, 0.110657, -0.119354
835, 8340000.000000,0.667877, 0.989258, -0.233093,-0.205017, 0.025757, -0.463013,0.041962, 0.115631, -0.115387
836, 8350000.000000,0.667877, 0.989258, -0.446838,-0.205017, 0.025757, -0.463013,0.041962, 0.115631, -0.115387
837, 8360000.000000,0.827850, 0.989258, -0.446838,-0.205017, 0.025757, -0.463013,0.041962, 0.115631, -0.115387
838, 8370000.000000,0.827850, 0.989258, -0.446838,-0.205017, 0.025757, -0.463013,0.041962, 0.115631, -0.115387
839, 8380000.000000,0.874115, 0.989258, -0.749542,0.712860, -0.131683, 0.312256,0.002960, 0.115387, -0.106445
840, 8390000.000000,0.874115, 0.989258, -0.749542,0.712860, -0.131683, 0.312256,0.002960, 0.115387, -0.106445
841, 8400000.000000,0.805725, 0.981476, -0.761292,0.712860, -0.131683, 0.312256,0.002960, 0.115387, -0.106445
842, 8410000.000000,0.805725, 0.981476, -0.761292,0.712860, -0.131683, 0.312256,0.002960, 0.115387, -0.106445
843, 8420000.000000,0.476257, 0.983734, -0.542267,-0.272217, -0.566376, -0.998505,0.003174, 0.111908, -0.095459
844, 8430000.000000,0.476257, 0.983734, -0.542267,-0.272217, -0.566376, -0.998505,0.003174, 0.111908, -0.095459
845, 8440000.000000,0.447449, 0.772491, -0.340485,-0.272217, -0.566376, -0.998505,0.003174, 0.111908, -0.095459
846, 8450000.000000,0.447449, 0.772491, -0.340485,-0.272217, -0.566376, -0.998505,0.003174, 0.111908, -0.095459
847, 8460000.000000,0.126373, 0.338959, -0.241638,-0.214142, -0.202271, -0.803680,0.020264, 0.110199, -0.099579
848, 8470000.000000,0.126373, 0.338959, -0.241638,-0.214142, -0.202271, -0.803680,0.020264, 0.110199, -0.099579
849, 8480000.000000,0.126373, 0.338959, -0.243744,-0.214142, -0.202271, -0.803680,0.020264, 0.110199, -0.099579
850, 8490000.000000,-0.047058, 0.247192, -0.243744,-0.214142, -0.202271, -0.803680,0.020264, 0.110199, -0.099579
851, 8500000.000000,-0.047058, 0.247192, -0.243744,-0.210022, -0.002014, -0.454132,0.041016, 0.103821, -0.096558
852, 8510000.000000,-0.052887, 0.412109, -0.307098,-0.210022, -0.002014, -0.454132,0.041016, 0.103821, -0.096558
853, 8520000.000000,-0.052887, 0.412109, -0.307098,-0.210022, -0.002014, -0.454132,0.041016, 0.103821, -0.096558
854, 8530000.000000,0.026550, 0.544678, -0.396118,-0.210022, -0.002014, -0.454132,0.041016, 0.103821, -0.096558
855, 8540000.000000,0.026550, 0.544678, -0.396118,-0.210022, -0.020996, -0.719635,0.046265, 0.102386, -0.090454
856, 8550000.000000,0.263367, 0.553375, -0.582489,-0.292206, -0.020996, -0.719635,0.046265, 0.102386, -0.090454
857, 8560000.000000,0.263367, 0.553375, -0.582489,-0.292206, -0.020996, -0.719635,0.046265, 0.102386, -0.090454
858, 8570000.000000,0.263367, 0.373688, -0.652039,-0.292206, -0.020996, -0.719635,0.046265, 0.102386, -0.090454
859, 8580000.000000,0.288818, 0.374146, -0.652039,-0.292206, -0.020996, -0.817596,0.074127, 0.099792, -0.081085
860, 8590000.000000,0.288818, 0.374146, -0.652039,-0.243561, -0.226532, -0.817596,0.074127, 0.099792, -0.081085
861, 8600000.000000,0.192108, 0.159332, -0.668274,-0.243561, -0.226532, -0.817596,0.074127, 0.099792, -0.081085
862, 8610000.000000,0.192108, 0.159332, -0.621399,-0.243561, -0.226532, -0.817596,0.074127, 0.099792, -0.081085
863, 8620000.000000,0.005432, -0.015991, -0.622681,-0.307648, -0.395996, -0.717896,0.094299, 0.095093, -0.068451
864, 8630000.000000,0.005432, -0.148804, -0.554413,-0.307648, -0.395996, -0.717896,0.094299, 0.095093, -0.068451
865, 8640000.000000,-0.201752, -0.152039, -0.554413,-0.307648, -0.395996, -0.717896,0.094299, 0.095093, -0.068451
866, 8650000.000000,-0.201752, -0.152039, -0.554413,-0.307648, -0.395996, -0.717896,0.094299, 0.095093, -0.068451
867, 8660000.000000,-0.503845, -0.290039, -0.520081,-0.387726, -0.538269, -0.521729,0.104736, 0.085297, -0.043152
868, 8670000.000000,-0.503845, -0.290039, -0.520081,-0.387726, -0.538269, -0.521729,0.104736, 0.085297, -0.043152
869, 8680000.000000,-0.573273, -0.409668, -0.197327,-0.387726, -0.538269, -0.521729,0.104736, 0.085297, -0.043152
870, 8690000.000000,-0.573273, -0.409668, -0.197327,-0.387726, -0.538269, -0.521729,0.104736, 0.085297, -0.043152
871, 8700000.000000,-0.487335, -0.530670, 0.011658,-0.286163, -0.304382, -0.404022,0.103882, 0.077484, -0.023407
872, 8710000.000000,-0.485565, -0.530670, 0.011658,-0.289062, -0.304382, -0.404022,0.103882, 0.077484, -0.023407
873, 8720000.000000,-0.485565, -0.530670, 0.011658,-0.289062, -0.304382, -0.404022,0.103882, 0.077484, -0.023407
874, 8730000.000000,-0.401978, -0.692688, 0.082245,-0.289062, -0.304382, -0.404022,0.103882, 0.077484, -0.023407
875, 8740000.000000,-0.401978, -0.692688, 0.082245,-0.179688, -0.192505, -0.435272,0.102814, 0.077606, -0.008911
876, 8750000.000000,-0.240112, -0.862732, 0.118683,-0.179230, -0.192505, -0.435272,0.102814, 0.077606, -0.008911
877, 8760000.000000,-0.240112, -0.862732, 0.118683,-0.179230, -0.192505, -0.435272,0.102814, 0.077606, -0.008911
878, 8770000.000000,-0.091309, -0.988586, 0.146759,-0.179230, -0.192505, -0.435272,0.102814, 0.077606, -0.008911
879, 8780000.000000,-0.091309, -0.988586, 0.146759,-0.179230, -0.231567, -0.387512,0.093170, 0.076721, -0.011108
880, 8790000.000000,-0.020935, -1.000000, 0.178131,-0.066406, -0.226898, -0.387512,0.093170, 0.076721, -0.011108
881, 8800000.000000,-0.020935, -1.000000, 0.178131,-0.066406, -0.226898, -0.387512,0.093170, 0.076721, -0.011108
882, 8810000.000000,-0.009003, -1.000000, 0.218109,-0.066406, -0.226898, -0.387512,0.093170, 0.076721, -0.011108
883, 8820000.000000,-0.009003, -1.000000, 0.218109,0.086090, -0.202820, -0.428802,0.092743, 0.072784, -0.005035
884, 8830000.000000,0.000061, -1.000000, 0.258301,0.086090, -0.202820, -0.428802,0.092743, 0.072784, -0.005035
885, 8840000.000000,0.000061, -1.000000, 0.258301,0.086090, -0.202820, -0.428802,0.092743, 0.072784, -0.005035
886, 8850000.000000,0.026245, -1.000000, 0.332489,0.086090, -0.202820, -0.428802,0.092743, 0.072784, 0.002777
887, 8860000.000000,0.026245, -1.000000, 0.332489,0.135986, -0.176270, -0.424988,0.094788, 0.065216, 0.005676
888, 8870000.000000,0.026245, -1.000000, 0.347778,0.135986, -0.176270, -0.424988,0.094788, 0.065216, 0.005676
889, 8880000.000000,0.184662, -1.000000, 0.347778,0.135986, -0.176270, -0.424988,0.094788, 0.065216, 0.005676
890, 8890000.000000,0.184662, -1.000000, 0.347778,0.135986, -0.176270, -0.424988,0.094788, 0.065216, 0.005676
891, 8900000.000000,0.248291, -1.000000, 0.339752,0.270844, -0.183380, -0.449860,0.058777, 0.053040, 0.015594
892, 8910000.000000,0.248291, -1.000000, 0.339752,0.270844, -0.183380, -0.449860,0.058777, 0.053040, 0.015594
893, 8920000.000000,0.287964, -1.000000, 0.361267,0.270844, -0.183380, -0.449860,0.058777, 0.053040, 0.015594
894, 8930000.000000,0.287964, -1.000000, 0.361267,0.270844, -0.183380, -0.449860,0.058777, 0.053040, 0.015594
895, 8940000.000000,0.358246, -1.000000, 0.382629,0.339813, 0.009888, -0.564789,0.021729, 0.056702, -0.031342
896, 8950000.000000,0.358246, -1.000000, 0.382629,0.339813, 0.009888, -0.564789,0.021729, 0.056702, -0.031342
897, 8960000.000000,0.358246, -1.000000, 0.359192,0.339813, 0.009888, -0.564789,0.021729, 0.056702, -0.031342
898, 8970000.000000,0.450195, -1.000000, 0.354248,0.339813, 0.009888, -0.564789,0.021729, 0.056702, -0.031342
899, 8980000.000000,0.450195, -1.000000, 0.354248,0.339813, 0.100739, -0.657593,0.040039, 0.069427, -0.063232
900, 8990000.000000,0.535553, -1.000000, 0.308990,0.387329, 0.100739, -0.657593,0.040039, 0.069427, -0.063232
901, 9000000.000000,0.535553, -1.000000, 0.308990,0.387329, 0.100739, -0.657593,0.040039, 0.069427, -0.063232
902, 9010000.000000,0.552521, -1.000000, 0.289581,0.387329, 0.100739, -0.657593,0.040039, 0.069427, -0.063232
903, 9020000.000000,0.552521, -1.000000, 0.289581,0.387329, 0.100739, -0.657593,0.047852, 0.063293, -0.054138
904, 9030000.000000,0.474396, -1.000000, 0.344727,0.481659, -0.102661, -0.820770,0.053955, 0.063293, -0.054138
905, 9040000.000000,0.469604, -1.000000, 0.344727,0.481659, -0.102661, -0.820770,0.053955, 0.063293, -0.054138
906, 9050000.000000,0.469604, -1.000000, 0.344727,0.481659, -0.102661, -0.820770,0.053955, 0.063293, -0.054138
907, 9060000.000000,0.329651, -1.000000, 0.458099,0.481659, -0.102661, -0.820770,0.053955, 0.063293, -0.054138
908, 9070000.000000,0.329651, -1.000000, 0.458099,0.666138, -0.200165, -0.831421,0.061401, 0.067841, -0.063965
909, 9080000.000000,0.213470, -1.000000, 0.562622,0.666138, -0.200165, -0.831421,0.061401, 0.067841, -0.063965
910, 9090000.000000,0.213470, -1.000000, 0.562622,0.666138, -0.200165, -0.831421,0.061401, 0.067841, -0.063965
911, 9100000.000000,0.222260, -1.000000, 0.593109,0.666138, -0.200165, -0.831421,0.065613, 0.074615, -0.070557
912, 9110000.000000,0.222260, -1.000000, 0.593109,0.998077, -0.020264, -0.591614,0.065613, 0.074615, -0.070557
913, 9120000.000000,0.345947, -1.000000, 0.522247,0.998077, -0.020264, -0.591614,0.065613, 0.074615, -0.070557
914, 9130000.000000,0.345947, -1.000000, 0.522247,0.998077, -0.020264, -0.591614,0.065613, 0.074615, -0.070557
915, 9140000.000000,0.531921, -0.993805, 0.454224,0.998077, -0.020264, -0.279114,0.089050, 0.083618, -0.075226
916, 9150000.000000,0.531921, -0.993805, 0.454224,0.999756, 0.052765, -0.276855,0.088654, 0.083618, -0.075226
917, 9160000.000000,0.531921, -0.993805, 0.454224,0.999756, 0.052765, -0.276855,0.088654, 0.083618, -0.075226
918, 9170000.000000,0.462433, -0.857971, 0.259369,0.999756, 0.052765, -0.276855,0.088654, 0.083618, -0.075226
919, 9180000.000000,0.462433, -0.857971, 0.259369,0.999756, 0.052765, -0.276855,0.088654, 0.083618, -0.067413
920, 9190000.000000,0.290771, -0.531036, 0.168610,0.999756, -0.067108, 0.206116,0.096680, 0.086090, -0.067291
921, 9200000.000000,0.290771, -0.531036, 0.168610,0.999756, -0.067108, 0.206116,0.096680, 0.086090, -0.067291
922, 9210000.000000,0.246185, -0.200470, 0.125763,0.999756, -0.067108, 0.206116,0.096680, 0.086090, -0.067291
923, 9220000.000000,0.246185, -0.200470, 0.125763,0.999756, -0.067108, 0.206116,0.096680, 0.078278, -0.064423
924, 9230000.000000,0.345398, 0.185303, 0.102051,0.999756, -0.024170, 0.216766,0.101685, 0.084381, -0.064423
925, 9240000.000000,0.408569, 0.643066, 0.026733,0.999756, -0.024170, 0.216766,0.101685, 0.084381, -0.064423
926, 9250000.000000,0.408569, 0.643066, 0.026733,0.999756, -0.024170, 0.216766,0.101685, 0.084381, -0.071686
927, 9260000.000000,0.174194, 0.976349, -0.231934,0.999756, 0.369415, 0.526306,0.088776, 0.084564, -0.071686
928, 9270000.000000,0.177490, 0.976349, -0.231934,0.999756, 0.369415, 0.526306,0.088776, 0.084564, -0.071686
929, 9280000.000000,0.177490, 0.976349, -0.231934,0.999756, 0.369415, 0.526306,0.088776, 0.084564, -0.071686
930, 9290000.000000,-0.560638, 0.989258, -0.705475,0.999756, 0.369415, -0.934631,0.080963, 0.075684, -0.064758
931, 9300000.000000,-0.560638, 0.989258, -0.705475,0.098206, -0.644897, -0.935120,0.078644, 0.075684, -0.064758
932, 9310000.000000,-0.818237, 0.989258, -0.649017,0.098206, -0.644897, -0.935120,0.078644, 0.075684, -0.064758
933, 9320000.000000,-0.818237, 0.989258, -0.649017,0.098206, -0.644897, -0.935120,0.078644, 0.075684, -0.064758
934, 9330000.000000,-0.729736, 0.648468, 0.188721,0.098206, -0.644897, -0.935120,0.078644, 0.075684, -0.064758
935, 9340000.000000,-0.729736, 0.648468, 0.188721,-0.122711, 0.999756, -0.099518,0.070496, 0.066162, -0.063232
936, 9350000.000000,-0.001801, 0.447327, -0.053772,-0.122711, 0.999756, -0.099518,0.070496, 0.066162, -0.063232
937, 9360000.000000,-0.001801, 0.447327, -0.053772,-0.122711, 0.999756, -0.099518,0.070496, 0.066162, -0.063232
938, 9370000.000000,-0.001801, 0.447327, -0.001160,-0.122711, 0.999756, -0.099518,0.070496, 0.066162, -0.063232
939, 9380000.000000,-0.709412, 0.107330, -0.001160,-0.103973, 0.160553, -0.108337,0.071930, 0.064545, -0.062256
940, 9390000.000000,-0.709412, 0.107330, -0.001160,-0.103973, 0.160553, -0.108337,0.071930, 0.064545, -0.062256
941, 9400000.000000,-0.251953, 0.251434, -0.061249,-0.103973, 0.160553, -0.108337,0.071930, 0.064545, -0.062256
942, 9410000.000000,-0.251953, 0.251434, -0.061249,-0.103973, 0.160553, -0.108337,0.071930, 0.064545, -0.062256
943, 9420000.000000,-0.142731, -0.133820, -0.028687,-0.080688, 0.015472, -0.118225,0.068787, 0.062164, -0.065277
944, 9430000.000000,-0.142731, -0.133820, -0.028687,-0.080688, 0.015472, -0.118225,0.068787, 0.062164, -0.065277
945, 9440000.000000,-0.055420, 0.138062, -0.092896,-0.080688, 0.015472, -0.118225,0.068787, 0.062164, -0.065277
946, 9450000.000000,-0.055420, 0.138062, -0.092896,-0.080688, 0.015472, -0.118225,0.068787, 0.062164, -0.065277
947, 9460000.000000,-0.055420, -0.098267, -0.002563,-0.028839, 0.026520, -0.170593,0.073029, 0.061951, -0.066315
948, 9470000.000000,-0.073151, -0.098267, -0.002563,-0.028839, 0.026520, -0.170593,0.073029, 0.061951, -0.066315
949, 9480000.000000,-0.073151, -0.098267, -0.006317,-0.028839, 0.026520, -0.170593,0.073029, 0.061951, -0.066315
950, 9490000.000000,-0.032196, 0.036224, -0.006317,-0.028839, 0.026520, -0.170593,0.073029, 0.061951, -0.066315
951, 9500000.000000,-0.032196, 0.036224, -0.006317,-0.105713, -0.003784, -0.180511,0.064484, 0.065369, -0.060059
952, 9510000.000000,-0.030182, -0.036682, 0.016510,-0.105713, -0.003784, -0.180511,0.064484, 0.065369, -0.060059
953, 9520000.000000,-0.030182, -0.036682, 0.016510,-0.105713, -0.003784, -0.180511,0.064484, 0.065369, -0.060059
954, 9530000.000000,0.034180, 0.161346, 0.030548,-0.105713, -0.003784, -0.180511,0.064484, 0.065369, -0.060059
955, 9540000.000000,0.034180, 0.161346, 0.030548,-0.002380, -0.058350, -0.257904,0.069061, 0.063660, -0.066315
956, 9550000.000000,0.032837, 0.093079, 0.068512,-0.002380, -0.058350, -0.257904,0.069061, 0.063660, -0.066315
957, 9560000.000000,0.032837, 0.093079, 0.068512,-0.002380, -0.058350, -0.257904,0.069061, 0.063660, -0.066315
958, 9570000.000000,0.032837, 0.093079, 0.068512,-0.002380, -0.058350, -0.257904,0.069061, 0.063660, -0.066315
959, 9580000.000000,0.049225, 0.218231, 0.066010,0.028870, -0.051727, -0.266022,0.069855, 0.064362, -0.063232
960, 9590000.000000,0.049225, 0.218231, 0.066010,0.024200, -0.051727, -0.266022,0.069855, 0.064362, -0.063232
961, 9600000.000000,0.058197, 0.288788, 0.052124,0.024200, -0.051727, -0.266022,0.069855, 0.064362, -0.063232
962, 9610000.000000,0.058197, 0.288788, 0.052124,0.024200, -0.051727, -0.266022,0.069855, 0.064362, -0.063232
963, 9620000.000000,0.022156, 0.402985, 0.016876,0.024200, -0.051727, -0.266022,0.069855, 0.062805, -0.067261
964, 9630000.000000,0.022156, 0.402985, 0.016876,-0.336884, 0.060760, -0.255463,0.062012, 0.062805, -0.067261
965, 9640000.000000,0.029175, 0.862671, -0.065796,-0.336884, 0.060760, -0.255463,0.062012, 0.062805, -0.067261
966, 9650000.000000,0.029175, 0.862671, -0.065796,-0.336884, 0.060760, -0.255463,0.062012, 0.062805, -0.067261
967, 9660000.000000,0.075348, 0.970398, -0.158600,-0.212616, 0.256927, -0.794189,0.059509, 0.064911, -0.070618
968, 9670000.000000,0.075348, 0.970398, -0.158600,-0.212616, 0.256927, -0.794189,0.059509, 0.064911, -0.070618
969, 9680000.000000,0.075348, 0.970398, -0.158600,-0.212616, 0.256927, -0.794189,0.059509, 0.064911, -0.070618
970, 9690000.000000,0.612946, 0.989258, -0.359070,-0.212616, 0.256927, -0.794189,0.059509, 0.064911, -0.070618
971, 9700000.000000,0.612946, 0.989258, -0.359070,-0.212616, 0.256927, -0.794189,0.059509, 0.064911, -0.065002
972, 9710000.000000,0.861023, 0.989258, -0.555756,-0.181061, 0.050598, -0.542114,0.039642, 0.065735, -0.065002
973, 9720000.000000,0.861023, 0.989258, -0.555756,-0.181061, 0.050598, -0.542114,0.039642, 0.065735, -0.065002
974, 9730000.000000,0.861023, 0.989258, -0.688568,-0.181061, 0.050598, -0.542114,0.039642, 0.065735, -0.065002
975, 9740000.000000,0.844177, 0.989258, -0.690369,-0.181061, 0.050598, -0.542114,0.039642, 0.065735, -0.065002
976, 9750000.000000,0.844177, 0.989258, -0.690369,0.465088, -0.204681, 0.508728,0.022583, 0.061066, -0.052582
977, 9760000.000000,0.606171, 0.985626, -0.744354,0.465088, -0.204681, 0.508728,0.022583, 0.061066, -0.052582
978, 9770000.000000,0.606171, 0.985626, -0.744354,0.465088, -0.204681, 0.508728,0.022583, 0.061066, -0.052582
979, 9780000.000000,0.606171, 0.985626, -0.385864,0.465088, -0.204681, 0.508728,0.022583, 0.061066, -0.052582
980, 9790000.000000,0.229950, 0.959686, -0.385864,0.465088, -0.204681, 0.508728,0.022583, 0.061066, -0.046600
981, 9800000.000000,0.229950, 0.959686, -0.385864,-0.294983, -0.359100, -0.994049,0.010529, 0.060303, -0.046600
982, 9810000.000000,0.200775, 0.956177, -0.195435,-0.294983, -0.359100, -0.994049,0.010529, 0.060303, -0.046600
983, 9820000.000000,0.200775, 0.956177, -0.195435,-0.294983, -0.359100, -0.994049,0.010529, 0.060303, -0.046600
984, 9830000.000000,0.200775, 0.596802, -0.105438,-0.294983, -0.359100, -0.994049,0.010529, 0.060303, -0.046600
985, 9840000.000000,0.129089, 0.595001, -0.105438,-0.311127, -0.003387, -0.944061,0.011230, 0.057648, -0.049835
986, 9850000.000000,0.129089, 0.595001, -0.105438,-0.311127, -0.003387, -0.944061,0.011230, 0.057648, -0.049835
987, 9860000.000000,0.007538, 0.228699, -0.150848,-0.311127, -0.003387, -0.944061,0.011230, 0.057648, -0.049835
988, 9870000.000000,0.007538, 0.228699, -0.150848,-0.311127, -0.003387, -0.944061,0.011230, 0.057648, -0.049835
989, 9880000.000000,0.112946, 0.176910, -0.230469,-0.311127, -0.003387, -0.467499,0.011230, 0.053680, -0.057526
990, 9890000.000000,0.112946, 0.176910, -0.230469,-0.318542, 0.214081, -0.465118,0.014465, 0.053680, -0.057526
991, 9900000.000000,0.135162, 0.160797, -0.433838,-0.318542, 0.214081, -0.465118,0.014465, 0.053680, -0.057526
992, 9910000.000000,0.135162, 0.160797, -0.433838,-0.318542, 0.214081, -0.465118,0.014465, 0.053680, -0.057526
993, 9920000.000000,0.135162, 0.250824, -0.694977,-0.318542, 0.042206, -0.465240,0.021301, 0.051636, -0.053955
994, 9930000.000000,0.194031, 0.250824, -0.694977,-0.235809, 0.046417, -0.465240,0.021301, 0.051636, -0.053955
995, 9940000.000000,0.194031, 0.250824, -0.694977,-0.235809, 0.046417, -0.465240,0.021301, 0.051636, -0.053955
996, 9950000.000000,0.205658, 0.271973, -0.812775,-0.235809, 0.046417, -0.465240,0.021301, 0.051636, -0.053955
997, 9960000.000000,0.205658, 0.271973, -0.812775,-0.235809, 0.046417, -0.465240,0.021301, 0.051636, -0.053955
998, 9970000.000000,0.140808, 0.197083, -0.850708,-0.148163, -0.186981, -0.686462,0.027557, 0.047394, -0.046509
999, 9980000.000000,0.140808, 0.197083, -0.850708,-0.148163, -0.186981, -0.686462,0.027557, 0.047394, -0.046509
1000, 9990000.000000,0.140808, 0.197083, -0.850708,-0.148163, -0.186981, -0.686462,0.027557, 0.047394, -0.046509
1001, 10000000.000000,0.011353, 0.050232, -0.838654,-0.148163, -0.186981, -0.686462,0.027557, 0.047394, -0.046509
1002, 10010000.000000,0.011353, 0.050232, -0.838654,-0.145264, -0.366547, -0.640228,0.033875, 0.044769, -0.057434
1003, 10020000.000000,-0.209473, -0.088440, -0.856689,-0.145264, -0.366547, -0.640228,0.033875, 0.044769, -0.057434
1004, 10030000.000000,-0.209473, -0.088440, -0.856689,-0.145264, -0.366547, -0.640228,0.033875, 0.044769, -0.057434
1005, 10040000.000000,-0.209473, -0.088440, -0.591064,-0.145264, -0.366547, -0.640228,0.033875, 0.044769, -0.057434
1006, 10050000.000000,-0.520203, -0.179565, -0.586517,-0.145264, -0.366547, -0.640228,0.033875, 0.044769, -0.057434
1007, 10060000.000000,-0.520203, -0.179565, -0.586517,-0.220245, -0.494049, -0.533203,0.042114, 0.045502, -0.057526
1008, 10070000.000000,-0.652100, -0.211456, -0.466431,-0.220245, -0.494049, -0.533203,0.042114, 0.045502, -0.057526
1009, 10080000.000000,-0.652100, -0.211456, -0.466431,-0.220245, -0.494049, -0.533203,0.042114, 0.045502, -0.057526
1010, 10090000.000000,-0.652100, -0.234894, -0.260193,-0.220245, -0.494049, -0.533203,0.042114, 0.045502, -0.057526
1011, 10100000.000000,-0.545227, -0.239594, -0.260193,-0.295166, -0.424011, -0.534637,0.055084, 0.045166, -0.046082
1012, 10110000.000000,-0.545227, -0.239594, -0.260193,-0.295166, -0.424011, -0.534637,0.055084, 0.045166, -0.046082
1013, 10120000.000000,-0.445038, -0.352081, -0.061646,-0.295166, -0.424011, -0.534637,0.055084, 0.045166, -0.046082
1014, 10130000.000000,-0.445038, -0.352081, -0.061646,-0.295166, -0.424011, -0.534637,0.055084, 0.045166, -0.046082
1015, 10140000.000000,-0.328827, -0.548187, 0.089111,-0.295166, -0.424011, -0.501923,0.070679, 0.043915, -0.032471
1016, 10150000.000000,-0.328827, -0.548187, 0.089111,-0.214417, -0.317322, -0.501923,0.070679, 0.043915, -0.032471
1017, 10160000.000000,-0.328827, -0.548187, 0.205292,-0.214417, -0.317322, -0.501923,0.070679, 0.043915, -0.032471
1018, 10170000.000000,-0.170197, -0.763885, 0.205292,-0.214417, -0.317322, -0.501923,0.070679, 0.043915, -0.032471
1019, 10180000.000000,-0.170197, -0.763885, 0.205292,-0.214417, -0.317322, -0.501923,0.070679, 0.043915, -0.032471
1020, 10190000.000000,-0.009247, -0.950653, 0.295258,-0.094025, -0.245697, -0.410828,0.069336, 0.042786, -0.007721
1021, 10200000.000000,-0.009247, -0.950653, 0.295258,-0.094025, -0.245697, -0.410828,0.069336, 0.042786, -0.007721
1022, 10210000.000000,-0.009247, -0.997528, 0.367737,-0.094025, -0.245697, -0.410828,0.069336, 0.042786, -0.007721
1023, 10220000.000000,0.076416, -0.999939, 0.367737,-0.094025, -0.245697, -0.410828,0.069336, 0.042786, -0.007721
1024, 10230000.000000,0.076416, -0.999939, 0.367737,-0.094025, -0.245697, -0.386566,0.044250, 0.041779, 0.010986
1025, 10240000.000000,0.078979, -1.000000, 0.444000,0.044495, -0.284241, -0.386566,0.044250, 0.041779, 0.010986
1026, 10250000.000000,0.078979, -1.000000, 0.444000,0.044495, -0.284241, -0.386566,0.044250, 0.041779, 0.010986
1027, 10260000.000000,0.058594, -1.000000, 0.524628,0.044495, -0.284241, -0.386566,0.044250, 0.041779, 0.010986
1028, 10270000.000000,0.058594, -1.000000, 0.524628,0.044495, -0.284241, -0.386566,0.002808, 0.048187, -0.006226
1029, 10280000.000000,0.086243, -1.000000, 0.590729,0.152954, -0.226837, -0.455322,0.002808, 0.048187, -0.006226
1030, 10290000.000000,0.086243, -1.000000, 0.590729,0.152954, -0.226837, -0.455322,0.002808, 0.048187, -0.006226
1031, 10300000.000000,0.171967, -1.000000, 0.635376,0.152954, -0.226837, -0.455322,0.002808, 0.048187, -0.053101
1032, 10310000.000000,0.171967, -1.000000, 0.635376,0.259674, -0.159973, -0.513184,-0.015991, 0.064209, -0.051697
1033, 10320000.000000,0.260162, -1.000000, 0.665802,0.259674, -0.159973, -0.513184,-0.015991, 0.064209, -0.051697
1034, 10330000.000000,0.260162, -1.000000, 0.665802,0.259674, -0.159973, -0.513184,-0.015991, 0.064209, -0.051697
1035, 10340000.000000,0.322784, -1.000000, 0.669312,0.259674, -0.159973, -0.513184,-0.015991, 0.064209, -0.051697
1036, 10350000.000000,0.322784, -1.000000, 0.669312,0.287964, 0.015198, -0.440857,-0.023468, 0.074097, -0.099060
1037, 10360000.000000,0.385651, -1.000000, 0.633606,0.287964, 0.015198, -0.440857,-0.023468, 0.074097, -0.099060
1038, 10370000.000000,0.385651, -1.000000, 0.633606,0.287964, 0.015198, -0.440857,-0.023468, 0.074097, -0.099060
1039, 10380000.000000,0.495026, -1.000000, 0.536469,0.287964, 0.015198, -0.440857,-0.023468, 0.074097, -0.099060
1040, 10390000.000000,0.494019, -1.000000, 0.536469,0.274078, 0.367615, -0.483368,0.001648, 0.092041, -0.146027
1041, 10400000.000000,0.494019, -1.000000, 0.536469,0.274078, 0.367615, -0.483368,0.001648, 0.092041, -0.146027
1042, 10410000.000000,0.614410, -1.000000, 0.367859,0.274078, 0.367615, -0.483368,0.001648, 0.092041, -0.146027
1043, 10420000.000000,0.614410, -1.000000, 0.367859,0.274078, 0.367615, -0.483368,0.001648, 0.092041, -0.146027
1044, 10430000.000000,0.654785, -1.000000, 0.173187,0.311340, 0.348694, -0.725952,0.062012, 0.112793, -0.156525
1045, 10440000.000000,0.654785, -1.000000, 0.173187,0.311340, 0.348694, -0.725952,0.062012, 0.112793, -0.156525
1046, 10450000.000000,0.533691, -1.000000, 0.031250,0.311340, 0.348694, -0.725952,0.062012, 0.112793, -0.156525
1047, 10460000.000000,0.533691, -1.000000, 0.031250,0.311340, 0.348694, -0.725952,0.062012, 0.112793, -0.156525
1048, 10470000.000000,0.533691, -1.000000, -0.016968,0.431793, -0.009094, -0.856354,0.110260, 0.117981, -0.123199
1049, 10480000.000000,0.327148, -1.000000, -0.016968,0.431793, -0.009094, -0.856354,0.110260, 0.117981, -0.123199
1050, 10490000.000000,0.327148, -1.000000, -0.016968,0.431793, -0.009094, -0.856354,0.110260, 0.117981, -0.123199
1051, 10500000.000000,0.143921, -1.000000, 0.030212,0.431793, -0.009094, -0.856354,0.110260, 0.117981, -0.123199
1052, 10510000.000000,0.019775, -1.000000, 0.146790,0.732727, -0.370483, -0.806458,0.135101, 0.108215, -0.080444
1053, 10520000.000000,0.019775, -1.000000, 0.146790,0.732727, -0.370483, -0.806458,0.135101, 0.108215, -0.080444
1054, 10530000.000000,0.019775, -1.000000, 0.285187,0.732727, -0.370483, -0.806458,0.135101, 0.108215, -0.080444
1055, 10540000.000000,-0.030426, -1.000000, 0.285187,0.732727, -0.370483, -0.806458,0.135101, 0.096375, -0.060089
1056, 10550000.000000,-0.030426, -1.000000, 0.285187,0.955017, -0.191071, -0.157898,0.130157, 0.096375, -0.060089
1057, 10560000.000000,0.117432, -0.997131, 0.285645,0.955017, -0.191071, -0.157898,0.130157, 0.096375, -0.060089
1058, 10570000.000000,0.117432, -0.997131, 0.285645,0.955017, -0.191071, -0.157898,0.130157, 0.096375, -0.060089
1059, 10580000.000000,0.358551, -0.737427, 0.051910,0.955017, -0.191071, -0.157898,0.130157, 0.096375, -0.060089
1060, 10590000.000000,0.358551, -0.737427, 0.051910,0.990997, -0.357758, -0.348145,0.121582, 0.099365, -0.058716
1061, 10600000.000000,0.358551, -0.318024, 0.099182,0.990997, -0.357758, -0.348145,0.121582, 0.099365, -0.058716
1062, 10610000.000000,0.544922, -0.318024, 0.099182,0.990997, -0.357758, -0.348145,0.121582, 0.099365, -0.058716
1063, 10620000.000000,0.544922, -0.318024, 0.242615,0.990997, -0.357758, -0.348145,0.121582, 0.099365, -0.058716
1064, 10630000.000000,0.382416, -0.052399, 0.242615,0.999756, 0.088654, 0.843323,0.115906, 0.100708, -0.066742
1065, 10640000.000000,0.382416, -0.052399, 0.242615,0.999756, 0.088654, 0.843323,0.115906, 0.100708, -0.066742
1066, 10650000.000000,0.153381, 0.613037, 0.205078,0.999756, 0.088654, 0.843323,0.115906, 0.100708, -0.066742
1067, 10660000.000000,0.153381, 0.613037, 0.205078,0.999756, 0.088654, 0.843323,0.115906, 0.100708, -0.066742
1068, 10670000.000000,-0.089264, 0.981812, -0.032928,0.999756, 0.601654, 0.851807,0.093201, 0.097961, -0.068390
1069, 10680000.000000,-0.089264, 0.981812, -0.032928,0.999756, 0.601654, 0.851807,0.093201, 0.097961, -0.068390
1070, 10690000.000000,-0.616547, 0.989258, -0.385895,0.999756, 0.601654, 0.851807,0.093201, 0.097961, -0.068390
