Index,Time(us), GyroX , GyroY , GyroZ ,AccX , AccY , AccZ , MagX , MagY , MagZ
1, 0.000000,-0.001709, 0.009247, -0.016479,-0.013000, -0.022827, -0.251221,0.092468, 0.087494, 0.026154
2, 10000.000000,-0.000824, 0.009491, -0.017090,-0.013885, -0.024017, -0.254761,0.092468, 0.087494, 0.026154
3, 20000.000000,-0.000824, 0.009430, -0.016541,-0.013885, -0.024017, -0.254761,0.092468, 0.087494, 0.026154
4, 30000.000000,-0.000824, 0.009430, -0.016541,-0.013885, -0.024017, -0.256622,0.095886, 0.088776, 0.018646
5, 40000.000000,-0.000824, 0.009430, -0.016449,-0.015076, -0.021820, -0.256622,0.095886, 0.088776, 0.018646
6, 50000.000000,-0.000488, 0.010284, -0.016449,-0.015076, -0.021820, -0.256622,0.095886, 0.088776, 0.018646
7, 60000.000000,-0.000488, 0.010284, -0.016449,-0.015076, -0.021820, -0.256622,0.095886, 0.088776, 0.018646
8, 70000.000000,-0.001038, 0.009674, -0.017303,-0.015076, -0.021820, -0.256622,0.095886, 0.088776, 0.023834
9, 80000.000000,-0.001038, 0.009674, -0.017303,-0.013916, -0.022156, -0.254242,0.091492, 0.088593, 0.023834
10, 90000.000000,-0.000305, 0.010437, -0.017242,-0.013916, -0.022156, -0.254242,0.091492, 0.088593, 0.023834
11, 100000.000000,-0.000305, 0.010437, -0.017242,-0.013916, -0.022156, -0.254242,0.091492, 0.088593, 0.023834
12, 110000.000000,-0.001801, 0.010223, -0.017761,-0.013916, -0.022156, -0.254242,0.091492, 0.087799, 0.027374
13, 120000.000000,-0.001801, 0.010223, -0.017761,-0.013824, -0.022308, -0.257141,0.092255, 0.087799, 0.027374
14, 130000.000000,-0.001953, 0.010498, -0.017334,-0.013824, -0.022308, -0.257141,0.092255, 0.087799, 0.027374
15, 140000.000000,-0.001953, 0.010498, -0.017334,-0.013824, -0.022308, -0.257141,0.092255, 0.087799, 0.027374
16, 150000.000000,-0.001953, 0.010498, -0.017334,-0.013824, -0.022308, -0.257141,0.092255, 0.087799, 0.019562
17, 160000.000000,-0.000549, 0.010712, -0.016785,-0.014069, -0.022217, -0.257355,0.095581, 0.086884, 0.016022
18, 170000.000000,-0.000549, 0.010712, -0.016785,-0.014069, -0.022217, -0.257355,0.095581, 0.086884, 0.016022
19, 180000.000000,-0.000610, 0.008942, -0.017731,-0.014069, -0.022217, -0.257355,0.095581, 0.086884, 0.016022
20, 190000.000000,-0.000610, 0.008942, -0.017731,-0.014069, -0.022217, -0.257355,0.095581, 0.086884, 0.016022
21, 200000.000000,-0.002075, 0.008911, -0.017853,-0.014191, -0.022614, -0.251343,0.091400, 0.089142, 0.018188
22, 210000.000000,-0.002075, 0.008911, -0.017853,-0.014191, -0.022614, -0.251343,0.091400, 0.089142, 0.018188
23, 220000.000000,-0.001617, 0.010986, -0.016968,-0.014191, -0.022614, -0.251343,0.091400, 0.089142, 0.018188
24, 230000.000000,-0.001617, 0.010986, -0.016968,-0.014191, -0.022614, -0.251343,0.091400, 0.089142, 0.018188
25, 240000.000000,-0.001617, 0.010986, -0.016968,-0.014465, -0.022644, -0.255951,0.089935, 0.091919, 0.021271
26, 250000.000000,-0.002106, 0.008820, -0.017548,-0.014465, -0.022644, -0.255951,0.089935, 0.091919, 0.021271
27, 260000.000000,-0.002106, 0.008820, -0.017548,-0.014465, -0.022644, -0.255951,0.089935, 0.091919, 0.021271
28, 270000.000000,-0.001953, 0.008728, -0.018707,-0.014465, -0.022644, -0.255951,0.089935, 0.091919, 0.021271
29, 280000.000000,-0.001953, 0.008728, -0.018707,-0.013794, -0.023438, -0.255035,0.092499, 0.086060, 0.022614
30, 290000.000000,0.000061, 0.010681, -0.017456,-0.013794, -0.023438, -0.255035,0.092499, 0.086060, 0.022614
31, 300000.000000,0.000061, 0.010681, -0.017456,-0.013794, -0.023438, -0.255035,0.092499, 0.086060, 0.022614
32, 310000.000000,0.000031, 0.010986, -0.016327,-0.013794, -0.023438, -0.253387,0.086853, 0.088623, 0.020599
33, 320000.000000,0.000031, 0.010986, -0.016327,-0.015747, -0.022369, -0.253387,0.086853, 0.088623, 0.020599
34, 330000.000000,-0.000824, 0.010406, -0.016785,-0.015747, -0.022369, -0.253387,0.086853, 0.088623, 0.020599
35, 340000.000000,-0.000824, 0.010406, -0.016785,-0.015747, -0.022369, -0.253387,0.086853, 0.088623, 0.020599
36, 350000.000000,-0.000916, 0.009583, -0.015411,-0.015747, -0.022369, -0.253387,0.095154, 0.086365, 0.016602
37, 360000.000000,-0.000916, 0.009583, -0.015411,-0.014130, -0.022583, -0.254089,0.095154, 0.086365, 0.016602
38, 370000.000000,-0.001740, 0.010956, -0.017609,-0.014130, -0.022583, -0.254089,0.095154, 0.086365, 0.016602
39, 380000.000000,-0.001740, 0.010956, -0.017609,-0.014130, -0.022583, -0.254089,0.095154, 0.086365, 0.016602
40, 390000.000000,-0.001740, 0.009705, -0.017670,-0.014130, -0.022583, -0.258636,0.093201, 0.086884, 0.025238
41, 400000.000000,-0.003326, 0.009705, -0.017670,-0.013519, -0.022552, -0.258636,0.093201, 0.086884, 0.025238
42, 410000.000000,-0.003326, 0.009705, -0.017670,-0.013519, -0.022552, -0.258636,0.093201, 0.086884, 0.025238
43, 420000.000000,-0.002106, 0.009949, -0.017334,-0.013519, -0.022552, -0.258636,0.093201, 0.086884, 0.025238
44, 430000.000000,-0.002106, 0.009949, -0.017334,-0.013519, -0.022552, -0.258636,0.093201, 0.086884, 0.016418
45, 440000.000000,-0.001892, 0.010101, -0.017181,-0.014404, -0.022278, -0.258789,0.091736, 0.088867, 0.016418
46, 450000.000000,-0.001892, 0.010101, -0.017181,-0.014404, -0.022278, -0.258789,0.091736, 0.088867, 0.016418
47, 460000.000000,-0.002106, 0.008820, -0.016510,-0.014404, -0.022278, -0.258789,0.091736, 0.088867, 0.016418
48, 470000.000000,-0.002106, 0.008820, -0.016510,-0.014404, -0.022278, -0.258789,0.091736, 0.088867, 0.016418
49, 480000.000000,-0.002106, 0.010681, -0.016510,-0.014191, -0.022949, -0.252899,0.091949, 0.089600, 0.019287
50, 490000.000000,-0.000427, 0.010681, -0.016510,-0.014191, -0.022949, -0.252899,0.091949, 0.089600, 0.019287
51, 500000.000000,-0.000427, 0.010681, -0.017700,-0.014191, -0.022949, -0.252899,0.091949, 0.089600, 0.019287
52, 510000.000000,-0.001740, 0.010437, -0.017700,-0.014191, -0.022949, -0.252899,0.091949, 0.089600, 0.019287
53, 520000.000000,-0.001740, 0.010437, -0.017700,-0.013641, -0.023224, -0.256561,0.092133, 0.089081, 0.019409
54, 530000.000000,-0.001953, 0.011200, -0.018036,-0.013641, -0.023224, -0.256561,0.092133, 0.089081, 0.019409
55, 540000.000000,-0.001953, 0.011200, -0.018036,-0.013641, -0.023224, -0.256561,0.092133, 0.089081, 0.019409
56, 550000.000000,-0.001038, 0.010712, -0.018036,-0.013641, -0.023224, -0.256561,0.092133, 0.089081, 0.019409
57, 560000.000000,-0.001038, 0.010712, -0.018036,-0.014526, -0.022430, -0.254761,0.093109, 0.088226, 0.021454
58, 570000.000000,-0.001038, 0.010712, -0.016266,-0.014526, -0.022430, -0.254761,0.093109, 0.088226, 0.021454
59, 580000.000000,-0.000641, 0.009369, -0.016266,-0.014526, -0.022430, -0.254761,0.093109, 0.088226, 0.021454
60, 590000.000000,-0.000641, 0.009369, -0.016266,-0.014526, -0.022430, -0.254761,0.093109, 0.088226, 0.021454
61, 600000.000000,-0.001373, 0.010193, -0.017212,-0.014099, -0.023224, -0.254791,0.090332, 0.088257, 0.020660
62, 610000.000000,-0.001373, 0.010193, -0.017212,-0.014099, -0.023224, -0.254791,0.090332, 0.088257, 0.020660
63, 620000.000000,-0.001434, 0.010559, -0.016785,-0.014099, -0.023224, -0.254791,0.090332, 0.088257, 0.020660
64, 630000.000000,-0.001434, 0.010559, -0.016785,-0.014099, -0.023224, -0.254791,0.090332, 0.088257, 0.020660
65, 640000.000000,-0.001801, 0.011292, -0.016388,-0.012604, -0.022705, -0.256256,0.088379, 0.086456, 0.015869
66, 650000.000000,-0.001801, 0.011292, -0.016388,-0.012604, -0.022705, -0.256256,0.088379, 0.086456, 0.015869
67, 660000.000000,-0.001801, 0.010254, -0.017273,-0.012604, -0.022705, -0.256256,0.088379, 0.086456, 0.015869
68, 670000.000000,-0.001648, 0.010254, -0.017273,-0.012604, -0.022705, -0.256256,0.088379, 0.086456, 0.015869
69, 680000.000000,-0.001648, 0.010254, -0.017548,-0.016052, -0.022644, -0.257507,0.078430, 0.086365, 0.023529
70, 690000.000000,-0.000366, 0.009613, -0.017548,-0.016052, -0.022644, -0.257507,0.078430, 0.086365, 0.023529
71, 700000.000000,-0.000366, 0.009613, -0.017548,-0.016052, -0.022644, -0.257507,0.078430, 0.086365, 0.023529
72, 710000.000000,0.000336, 0.009308, -0.016663,-0.016052, -0.022644, -0.257507,0.078430, 0.086365, 0.023529
73, 720000.000000,0.000336, 0.009308, -0.016663,-0.014893, -0.023163, -0.254517,0.090515, 0.087067, 0.022034
74, 730000.000000,-0.000275, 0.009766, -0.017029,-0.014893, -0.023163, -0.254517,0.090515, 0.087067, 0.022034
75, 740000.000000,-0.000275, 0.009766, -0.017029,-0.014893, -0.023163, -0.254517,0.090515, 0.087067, 0.022034
76, 750000.000000,-0.000916, 0.011078, -0.017731,-0.014893, -0.023163, -0.254517,0.090515, 0.087067, 0.022034
77, 760000.000000,-0.000916, 0.011078, -0.017731,-0.014893, -0.023071, -0.258057,0.092224, 0.085754, 0.022827
78, 770000.000000,-0.000916, 0.010345, -0.017151,-0.013306, -0.023071, -0.258057,0.092224, 0.085754, 0.022827
79, 780000.000000,0.000671, 0.010345, -0.017151,-0.013306, -0.023071, -0.258057,0.092224, 0.085754, 0.022827
80, 790000.000000,0.000671, 0.010345, -0.017151,-0.013306, -0.023071, -0.258057,0.092224, 0.085754, 0.022827
81, 800000.000000,0.000885, 0.009705, -0.017822,-0.013306, -0.023071, -0.258057,0.092224, 0.089233, 0.023438
82, 810000.000000,0.000885, 0.009705, -0.017822,-0.014374, -0.021851, -0.256653,0.092865, 0.089233, 0.023438
83, 820000.000000,-0.001007, 0.009125, -0.018005,-0.014374, -0.021851, -0.256653,0.092865, 0.089233, 0.023438
84, 830000.000000,-0.001007, 0.009125, -0.018005,-0.014374, -0.021851, -0.256653,0.092865, 0.089233, 0.023438
85, 840000.000000,-0.002167, 0.009399, -0.017914,-0.014374, -0.021851, -0.256653,0.092865, 0.089233, 0.020020
86, 850000.000000,-0.002167, 0.009399, -0.017914,-0.013367, -0.022980, -0.252014,0.091400, 0.090424, 0.020020
87, 860000.000000,-0.001831, 0.011353, -0.017944,-0.013367, -0.022980, -0.252014,0.091400, 0.090424, 0.020020
88, 870000.000000,-0.001831, 0.011353, -0.017944,-0.013367, -0.022980, -0.252014,0.091400, 0.090424, 0.020020
89, 880000.000000,-0.001831, 0.011353, -0.017944,-0.013367, -0.022980, -0.252014,0.091400, 0.090424, 0.020020
90, 890000.000000,-0.000824, 0.009155, -0.017151,-0.014374, -0.021973, -0.251434,0.093292, 0.088654, 0.020233
91, 900000.000000,-0.000824, 0.009155, -0.017151,-0.014374, -0.021973, -0.251434,0.093292, 0.088654, 0.020233
92, 910000.000000,-0.000702, 0.009155, -0.017151,-0.014374, -0.021973, -0.251434,0.093292, 0.088654, 0.020233
93, 920000.000000,-0.000702, 0.009155, -0.017151,-0.014374, -0.021973, -0.251434,0.093536, 0.088379, 0.017944
94, 930000.000000,0.000641, 0.009216, -0.017426,-0.014832, -0.023438, -0.252167,0.093536, 0.088379, 0.017944
95, 940000.000000,0.000641, 0.009216, -0.017426,-0.014832, -0.023438, -0.252167,0.093536, 0.088379, 0.017944
96, 950000.000000,-0.000885, 0.008148, -0.016937,-0.014832, -0.023438, -0.252167,0.093536, 0.088379, 0.017944
97, 960000.000000,-0.000885, 0.008148, -0.016937,-0.014832, -0.023438, -0.252167,0.093536, 0.080566, 0.027191
98, 970000.000000,-0.000977, 0.009033, -0.017578,-0.013092, -0.022949, -0.257996,0.092438, 0.084595, 0.027191
99, 980000.000000,-0.000977, 0.009033, -0.017578,-0.013092, -0.022949, -0.257996,0.092438, 0.084595, 0.027191
100, 990000.000000,-0.001312, 0.009247, -0.017517,-0.013092, -0.022949, -0.257996,0.092438, 0.084595, 0.027191
101, 1000000.000000,-0.001312, 0.009247, -0.017517,-0.013092, -0.022949, -0.257996,0.092438, 0.092407, 0.022400
102, 1010000.000000,-0.001312, 0.009247, -0.017517,-0.014008, -0.022675, -0.254089,0.089172, 0.090393, 0.022400
103, 1020000.000000,-0.000549, 0.008698, -0.017456,-0.014008, -0.022675, -0.254089,0.089172, 0.090393, 0.022400
104, 1030000.000000,-0.000549, 0.008698, -0.017456,-0.014008, -0.022675, -0.254089,0.089172, 0.090393, 0.022400
105, 1040000.000000,0.000183, 0.009369, -0.016418,-0.014008, -0.022675, -0.254089,0.089172, 0.090393, 0.021973
106, 1050000.000000,0.000183, 0.009369, -0.016418,-0.015228, -0.023254, -0.254852,0.091217, 0.090424, 0.021973
107, 1060000.000000,-0.001129, 0.007843, -0.017517,-0.015228, -0.023254, -0.254852,0.091217, 0.090424, 0.021973
108, 1070000.000000,-0.001129, 0.007843, -0.017517,-0.015228, -0.023254, -0.254852,0.091217, 0.090424, 0.021973
109, 1080000.000000,-0.001251, 0.008270, -0.016968,-0.015228, -0.023254, -0.254852,0.091217, 0.090424, 0.021973
110, 1090000.000000,-0.001251, 0.008270, -0.016968,-0.014252, -0.022797, -0.252197,0.092499, 0.088287, 0.020905
111, 1100000.000000,-0.001251, 0.008270, -0.016113,-0.014252, -0.022797, -0.252197,0.092499, 0.088287, 0.020905
112, 1110000.000000,-0.000641, 0.009003, -0.016113,-0.014252, -0.022797, -0.252197,0.092499, 0.088287, 0.020905
113, 1120000.000000,-0.000641, 0.009003, -0.016113,-0.014252, -0.022797, -0.252197,0.092499, 0.088287, 0.020905
114, 1130000.000000,-0.000885, 0.009583, -0.017578,-0.014313, -0.022186, -0.256683,0.091827, 0.088318, 0.016663
115, 1140000.000000,-0.001160, 0.010315, -0.017639,-0.014313, -0.022186, -0.256683,0.091827, 0.088318, 0.016663
116, 1150000.000000,-0.001160, 0.010315, -0.017639,-0.014313, -0.022186, -0.256683,0.091827, 0.088318, 0.016663
117, 1160000.000000,-0.001770, 0.008606, -0.017365,-0.012482, -0.022461, -0.253174,0.092712, 0.082214, 0.027374
118, 1170000.000000,-0.001770, 0.008606, -0.017365,-0.012482, -0.022461, -0.253174,0.092712, 0.082214, 0.027374
119, 1180000.000000,-0.001770, 0.008606, -0.017365,-0.012482, -0.022461, -0.253174,0.092712, 0.082214, 0.027374
120, 1190000.000000,-0.001343, 0.008057, -0.017426,-0.012482, -0.022461, -0.253174,0.092712, 0.082214, 0.027374
121, 1200000.000000,-0.001343, 0.008057, -0.017426,-0.015106, -0.021942, -0.258301,0.083771, 0.086853, 0.029907
122, 1210000.000000,-0.001129, 0.009705, -0.016296,-0.015106, -0.021942, -0.258301,0.083771, 0.086853, 0.029907
123, 1220000.000000,-0.001129, 0.009705, -0.016296,-0.015106, -0.021942, -0.258301,0.083771, 0.086853, 0.029907
124, 1230000.000000,-0.001526, 0.010254, -0.016144,-0.015106, -0.021942, -0.258301,0.083771, 0.086853, 0.029907
125, 1240000.000000,-0.001526, 0.010254, -0.016144,-0.015106, -0.021942, -0.250488,0.091522, 0.090118, 0.026367
126, 1250000.000000,-0.001526, 0.010254, -0.016296,-0.014893, -0.022980, -0.252533,0.091522, 0.090118, 0.026367
127, 1260000.000000,-0.000977, 0.009003, -0.016296,-0.014893, -0.022980, -0.252533,0.091522, 0.090118, 0.026367
128, 1270000.000000,-0.000977, 0.009003, -0.016296,-0.014893, -0.022980, -0.252533,0.091522, 0.090118, 0.026367
129, 1280000.000000,-0.000702, 0.009460, -0.016296,-0.014893, -0.022522, -0.254730,0.093994, 0.089752, 0.020844
130, 1290000.000000,-0.000702, 0.009460, -0.016296,-0.013916, -0.022522, -0.254730,0.093994, 0.089752, 0.020844
131, 1300000.000000,-0.000366, 0.008575, -0.017395,-0.013916, -0.022522, -0.254730,0.093994, 0.089752, 0.020844
132, 1310000.000000,-0.000366, 0.008575, -0.017395,-0.013916, -0.022522, -0.254730,0.093994, 0.089752, 0.020844
133, 1320000.000000,-0.000427, 0.008270, -0.017975,-0.013916, -0.022522, -0.254730,0.093994, 0.089447, 0.020691
134, 1330000.000000,-0.000427, 0.008270, -0.017975,-0.015106, -0.022675, -0.255951,0.093933, 0.089447, 0.020691
135, 1340000.000000,-0.000641, 0.010010, -0.016418,-0.015106, -0.022675, -0.255951,0.093933, 0.089447, 0.020691
136, 1350000.000000,-0.000641, 0.010010, -0.016418,-0.015106, -0.022675, -0.255951,0.093933, 0.089447, 0.020691
137, 1360000.000000,-0.000427, 0.009613, -0.016632,-0.015106, -0.022675, -0.253113,0.091675, 0.087158, 0.021515
138, 1370000.000000,-0.000427, 0.009613, -0.016632,-0.013367, -0.022278, -0.253113,0.091675, 0.087158, 0.021515
139, 1380000.000000,-0.000397, 0.009552, -0.016907,-0.013367, -0.022278, -0.253113,0.091675, 0.087158, 0.021515
140, 1390000.000000,-0.000397, 0.009552, -0.016907,-0.013367, -0.022278, -0.253113,0.091675, 0.087158, 0.021515
141, 1400000.000000,-0.000397, 0.009552, -0.016998,-0.013367, -0.023407, -0.255554,0.095947, 0.088806, 0.016327
142, 1410000.000000,-0.000580, 0.008881, -0.016998,-0.014313, -0.023407, -0.255554,0.095947, 0.088806, 0.016327
143, 1420000.000000,-0.000580, 0.008881, -0.016998,-0.014313, -0.023407, -0.255554,0.095947, 0.088806, 0.016327
144, 1430000.000000,0.000732, 0.009003, -0.016510,-0.014313, -0.023407, -0.255554,0.095947, 0.088806, 0.016327
145, 1440000.000000,0.000732, 0.009003, -0.016510,-0.014313, -0.023407, -0.255554,0.093353, 0.086914, 0.021423
146, 1450000.000000,0.000061, 0.008453, -0.016510,-0.013489, -0.021484, -0.253021,0.093353, 0.086914, 0.021423
147, 1460000.000000,0.000061, 0.008453, -0.016510,-0.013489, -0.021484, -0.253021,0.093353, 0.086914, 0.021423
148, 1470000.000000,-0.007751, 0.008698, -0.016205,-0.013489, -0.021484, -0.253021,0.093353, 0.086914, 0.021423
149, 1480000.000000,-0.000946, 0.008698, -0.016205,-0.013489, -0.021484, -0.253021,0.093353, 0.086914, 0.021423
150, 1490000.000000,-0.000946, 0.008698, -0.016205,-0.014893, -0.022919, -0.257721,0.091827, 0.090881, 0.016663
151, 1500000.000000,-0.000916, 0.010468, -0.016357,-0.014893, -0.022919, -0.257721,0.091827, 0.090881, 0.016663
152, 1510000.000000,-0.000916, 0.010468, -0.016357,-0.014893, -0.022919, -0.257721,0.091827, 0.090881, 0.016663
153, 1520000.000000,-0.000885, 0.011230, -0.017853,-0.014893, -0.022919, -0.257721,0.091827, 0.090881, 0.016663
154, 1530000.000000,-0.000885, 0.011230, -0.017853,-0.013977, -0.022430, -0.254944,0.093994, 0.091248, 0.017548
155, 1540000.000000,-0.001404, 0.009338, -0.017761,-0.013977, -0.022430, -0.254944,0.093994, 0.091248, 0.017548
156, 1550000.000000,-0.001404, 0.009338, -0.017761,-0.013977, -0.022430, -0.254944,0.093994, 0.091248, 0.017548
157, 1560000.000000,-0.000244, 0.008453, -0.017792,-0.013977, -0.022430, -0.254944,0.093994, 0.091248, 0.015442
158, 1570000.000000,-0.000244, 0.008453, -0.017792,-0.014252, -0.023163, -0.257416,0.090485, 0.087524, 0.015442
159, 1580000.000000,-0.001221, 0.009918, -0.017975,-0.014252, -0.023163, -0.257416,0.090485, 0.087524, 0.015442
160, 1590000.000000,-0.001221, 0.009918, -0.017975,-0.014252, -0.023163, -0.257416,0.090485, 0.087524, 0.015442
161, 1600000.000000,-0.001221, 0.009918, -0.017975,-0.014252, -0.023163, -0.257416,0.090485, 0.087524, 0.015442
162, 1610000.000000,-0.002045, 0.009033, -0.017578,-0.014923, -0.022919, -0.255676,0.094086, 0.087921, 0.024078
163, 1620000.000000,-0.002045, 0.009033, -0.017578,-0.014923, -0.022919, -0.255676,0.094086, 0.087921, 0.024078
164, 1630000.000000,-0.000793, 0.008667, -0.017548,-0.014923, -0.022919, -0.255676,0.094086, 0.087921, 0.024078
165, 1640000.000000,-0.000793, 0.008667, -0.017548,-0.014923, -0.022919, -0.255676,0.094086, 0.087921, 0.024078
166, 1650000.000000,-0.000793, 0.008728, -0.016296,-0.014984, -0.022278, -0.253448,0.091003, 0.090271, 0.025452
167, 1660000.000000,-0.001617, 0.008728, -0.016296,-0.014984, -0.022278, -0.253448,0.091003, 0.090271, 0.025452
168, 1670000.000000,-0.001617, 0.008728, -0.016479,-0.014984, -0.022278, -0.253448,0.091003, 0.090271, 0.025452
169, 1680000.000000,-0.001343, 0.009399, -0.016479,-0.014984, -0.022278, -0.253448,0.091003, 0.090271, 0.025452
170, 1690000.000000,-0.001343, 0.009399, -0.016479,-0.014984, -0.022522, -0.252838,0.088959, 0.090729, 0.023285
171, 1700000.000000,-0.002167, 0.008026, -0.017334,-0.014191, -0.022522, -0.252838,0.088959, 0.090729, 0.023285
172, 1710000.000000,-0.002167, 0.008026, -0.017334,-0.014191, -0.022522, -0.252838,0.088959, 0.090729, 0.023285
173, 1720000.000000,-0.000732, 0.008514, -0.017303,-0.014191, -0.022522, -0.252838,0.088959, 0.090729, 0.023285
174, 1730000.000000,-0.000732, 0.008514, -0.017303,-0.014191, -0.022522, -0.257019,0.096405, 0.091034, 0.016663
175, 1740000.000000,-0.000732, 0.010345, -0.017670,-0.015289, -0.021545, -0.257019,0.096405, 0.091034, 0.016663
176, 1750000.000000,-0.002319, 0.010345, -0.017670,-0.015289, -0.021545, -0.257019,0.096405, 0.091034, 0.016663
177, 1760000.000000,-0.000610, 0.010254, -0.017517,-0.015289, -0.021545, -0.257019,0.096405, 0.091034, 0.016663
178, 1770000.000000,-0.000610, 0.010254, -0.017517,-0.014587, -0.022705, -0.258118,0.090057, 0.087982, 0.018311
179, 1780000.000000,-0.000610, 0.008484, -0.017731,-0.014587, -0.022705, -0.258118,0.090057, 0.087982, 0.018311
180, 1790000.000000,-0.000793, 0.008484, -0.017731,-0.014587, -0.022705, -0.258118,0.090057, 0.087982, 0.018311
181, 1800000.000000,-0.000793, 0.008484, -0.017731,-0.014587, -0.022705, -0.258118,0.090057, 0.087982, 0.018311
182, 1810000.000000,-0.002197, 0.007996, -0.017761,-0.014587, -0.022705, -0.256226,0.089630, 0.086121, 0.019470
183, 1820000.000000,-0.002197, 0.007996, -0.017761,-0.015656, -0.022705, -0.256226,0.089630, 0.086121, 0.019470
184, 1830000.000000,-0.001465, 0.008789, -0.017334,-0.015656, -0.022705, -0.256226,0.089630, 0.086121, 0.019470
185, 1840000.000000,-0.001465, 0.008789, -0.017334,-0.015656, -0.022705, -0.256226,0.089630, 0.086121, 0.019470
186, 1850000.000000,0.001343, 0.009003, -0.016602,-0.015656, -0.022705, -0.256226,0.089691, 0.088806, 0.021790
187, 1860000.000000,0.001343, 0.009003, -0.016602,-0.014191, -0.023438, -0.257141,0.089691, 0.088806, 0.021790
188, 1870000.000000,-0.000641, 0.009308, -0.017029,-0.014191, -0.023438, -0.257141,0.089691, 0.088806, 0.021790
189, 1880000.000000,-0.000641, 0.009308, -0.017029,-0.014191, -0.023438, -0.257141,0.089691, 0.088806, 0.021790
190, 1890000.000000,-0.000641, 0.009308, -0.017334,-0.014191, -0.023438, -0.254364,0.090820, 0.087494, 0.023743
191, 1900000.000000,-0.000763, 0.009247, -0.017334,-0.014984, -0.022278, -0.254364,0.090820, 0.087494, 0.023743
192, 1910000.000000,-0.000763, 0.009247, -0.017334,-0.014984, -0.022278, -0.254364,0.090820, 0.087494, 0.023743
193, 1920000.000000,-0.000397, 0.009216, -0.017395,-0.014984, -0.022278, -0.254364,0.090820, 0.087494, 0.023743
194, 1930000.000000,-0.000397, 0.009216, -0.017395,-0.014984, -0.022278, -0.254364,0.090820, 0.090485, 0.024323
195, 1940000.000000,-0.000641, 0.008942, -0.016754,-0.014374, -0.022583, -0.252380,0.089142, 0.090485, 0.024323
196, 1950000.000000,-0.000641, 0.008942, -0.016754,-0.014374, -0.022583, -0.252380,0.089142, 0.090485, 0.024323
197, 1960000.000000,-0.001099, 0.008575, -0.016174,-0.014374, -0.022583, -0.252380,0.089142, 0.090485, 0.016510
198, 1970000.000000,-0.000702, 0.010040, -0.016479,-0.015350, -0.022614, -0.252991,0.095764, 0.088226, 0.020782
199, 1980000.000000,-0.000702, 0.010040, -0.016479,-0.015350, -0.022614, -0.252991,0.095764, 0.088226, 0.020782
200, 1990000.000000,-0.000702, 0.010040, -0.016479,-0.015350, -0.022614, -0.252991,0.095764, 0.088226, 0.020782
201, 2000000.000000,-0.000366, 0.009369, -0.016907,-0.015350, -0.022614, -0.252991,0.095764, 0.088226, 0.020782
202, 2010000.000000,-0.000366, 0.009369, -0.016907,-0.015289, -0.023041, -0.256897,0.090942, 0.088409, 0.021606
203, 2020000.000000,-0.001801, 0.008820, -0.016327,-0.015289, -0.023041, -0.256897,0.090942, 0.088409, 0.021606
204, 2030000.000000,-0.001801, 0.008820, -0.016327,-0.015289, -0.023041, -0.256897,0.090942, 0.088409, 0.021606
205, 2040000.000000,-0.001770, 0.009003, -0.016144,-0.015289, -0.023041, -0.256897,0.090942, 0.088409, 0.021606
206, 2050000.000000,-0.001770, 0.009003, -0.016144,-0.014008, -0.022400, -0.255493,0.087677, 0.087646, 0.024628
207, 2060000.000000,-0.001770, 0.009003, -0.016144,-0.014008, -0.022400, -0.255493,0.087677, 0.087646, 0.024628
208, 2070000.000000,-0.000763, 0.009888, -0.016937,-0.014008, -0.022400, -0.255493,0.087677, 0.087646, 0.024628
209, 2080000.000000,-0.000763, 0.009888, -0.016937,-0.014008, -0.022400, -0.255493,0.087677, 0.087646, 0.024628
210, 2090000.000000,-0.001404, 0.008514, -0.018158,-0.014008, -0.022400, -0.256775,0.092987, 0.088348, 0.015289
211, 2100000.000000,-0.001404, 0.008514, -0.018158,-0.013458, -0.022705, -0.256775,0.092987, 0.088348, 0.015289
212, 2110000.000000,-0.001404, 0.008514, -0.018158,-0.013458, -0.022705, -0.256775,0.092987, 0.088348, 0.015289
213, 2120000.000000,-0.000214, 0.010040, -0.017670,-0.013458, -0.022705, -0.256775,0.092987, 0.088348, 0.015289
214, 2130000.000000,-0.000214, 0.010040, -0.017334,-0.013458, -0.022919, -0.255341,0.090912, 0.087708, 0.020294
215, 2140000.000000,-0.001251, 0.009521, -0.017334,-0.013184, -0.022919, -0.255341,0.090912, 0.087708, 0.020294
216, 2150000.000000,-0.001251, 0.009521, -0.016479,-0.013184, -0.022919, -0.255341,0.090912, 0.087708, 0.020294
217, 2160000.000000,-0.001129, 0.009583, -0.016479,-0.013184, -0.022919, -0.255341,0.090912, 0.087708, 0.020294
218, 2170000.000000,-0.001373, 0.008820, -0.017456,-0.013641, -0.023071, -0.256683,0.092804, 0.088470, 0.020966
219, 2180000.000000,-0.001373, 0.008820, -0.017456,-0.013641, -0.023071, -0.256683,0.092804, 0.088470, 0.020966
220, 2190000.000000,0.000183, 0.009949, -0.017426,-0.013641, -0.023071, -0.256683,0.092804, 0.088470, 0.020966
221, 2200000.000000,0.000183, 0.009949, -0.017426,-0.013641, -0.023071, -0.256683,0.092804, 0.088470, 0.019196
222, 2210000.000000,0.000183, 0.010010, -0.018036,-0.014374, -0.022186, -0.257446,0.095215, 0.088745, 0.019196
223, 2220000.000000,-0.000366, 0.010010, -0.018036,-0.014374, -0.022186, -0.257446,0.095215, 0.088745, 0.019196
224, 2230000.000000,-0.000366, 0.010010, -0.018036,-0.014374, -0.022186, -0.257446,0.095215, 0.088745, 0.019196
225, 2240000.000000,-0.001709, 0.009735, -0.017120,-0.014374, -0.022186, -0.257446,0.095215, 0.088745, 0.019196
226, 2250000.000000,-0.001709, 0.009735, -0.017120,-0.013428, -0.022400, -0.255554,0.094849, 0.086792, 0.020355
227, 2260000.000000,-0.002716, 0.010010, -0.016907,-0.013428, -0.022400, -0.255554,0.094849, 0.086792, 0.020355
228, 2270000.000000,-0.002716, 0.010010, -0.016907,-0.013428, -0.022400, -0.255554,0.094849, 0.086792, 0.020355
229, 2280000.000000,-0.001038, 0.008575, -0.016754,-0.013428, -0.022400, -0.255554,0.094849, 0.086792, 0.020355
230, 2290000.000000,-0.001038, 0.008575, -0.016754,-0.013794, -0.021637, -0.255951,0.091431, 0.090271, 0.022339
231, 2300000.000000,-0.001038, 0.008606, -0.016815,-0.013794, -0.021637, -0.255951,0.091431, 0.090271, 0.022339
232, 2310000.000000,-0.000671, 0.008606, -0.016815,-0.013794, -0.021637, -0.255951,0.091431, 0.090271, 0.022339
233, 2320000.000000,-0.000671, 0.008606, -0.016815,-0.013794, -0.021637, -0.255951,0.091431, 0.090271, 0.022339
234, 2330000.000000,-0.000183, 0.009216, -0.017181,-0.013428, -0.022430, -0.254456,0.086639, 0.087311, 0.021912
235, 2340000.000000,-0.000183, 0.009216, -0.017181,-0.013428, -0.022430, -0.254456,0.086639, 0.087311, 0.021912
236, 2350000.000000,-0.000519, 0.009979, -0.016418,-0.013428, -0.022430, -0.254456,0.086639, 0.087311, 0.021912
237, 2360000.000000,-0.000519, 0.009979, -0.016418,-0.013428, -0.022430, -0.254456,0.086639, 0.087311, 0.021088
238, 2370000.000000,-0.001465, 0.009705, -0.016327,-0.015961, -0.022644, -0.255127,0.088806, 0.087036, 0.021088
239, 2380000.000000,-0.001465, 0.009705, -0.016327,-0.015961, -0.022644, -0.255127,0.088806, 0.087036, 0.021088
240, 2390000.000000,-0.000885, 0.009888, -0.016663,-0.015961, -0.022644, -0.255127,0.088806, 0.087036, 0.021088
241, 2400000.000000,-0.000885, 0.009888, -0.016663,-0.015961, -0.022644, -0.255127,0.088806, 0.087036, 0.021851
242, 2410000.000000,-0.000183, 0.008698, -0.016998,-0.013947, -0.023254, -0.254944,0.092407, 0.087646, 0.021851
243, 2420000.000000,-0.000183, 0.008698, -0.016998,-0.013947, -0.023254, -0.254944,0.092407, 0.087646, 0.021851
244, 2430000.000000,-0.000916, 0.008270, -0.016724,-0.013947, -0.023254, -0.254944,0.092407, 0.087646, 0.021851
245, 2440000.000000,-0.000916, 0.008270, -0.016724,-0.013947, -0.023254, -0.254944,0.092407, 0.087646, 0.018494
246, 2450000.000000,-0.000916, 0.008423, -0.017365,-0.013611, -0.022736, -0.256836,0.094421, 0.090607, 0.018494
247, 2460000.000000,-0.000702, 0.008423, -0.017365,-0.013611, -0.022736, -0.256836,0.094421, 0.090607, 0.018494
248, 2470000.000000,-0.000702, 0.008423, -0.017365,-0.013611, -0.022736, -0.256836,0.094421, 0.090607, 0.018494
249, 2480000.000000,-0.001160, 0.007782, -0.017487,-0.013611, -0.022736, -0.256836,0.094421, 0.090607, 0.018494
250, 2490000.000000,-0.001160, 0.007782, -0.017487,-0.015106, -0.022980, -0.255402,0.089600, 0.090637, 0.024017
251, 2500000.000000,-0.000854, 0.008270, -0.017700,-0.015106, -0.022980, -0.255402,0.089600, 0.090637, 0.024017
252, 2510000.000000,-0.000854, 0.008270, -0.017700,-0.015106, -0.022980, -0.255402,0.089600, 0.090637, 0.024017
253, 2520000.000000,0.000183, 0.007690, -0.017914,-0.015106, -0.022980, -0.255402,0.089600, 0.090637, 0.024017
254, 2530000.000000,0.000183, 0.007690, -0.017914,-0.015625, -0.022552, -0.254242,0.090149, 0.086517, 0.014099
255, 2540000.000000,0.000183, 0.007904, -0.016785,-0.015625, -0.022552, -0.254242,0.090149, 0.086517, 0.014099
256, 2550000.000000,-0.000275, 0.007904, -0.016785,-0.015625, -0.022552, -0.254242,0.090149, 0.086517, 0.014099
257, 2560000.000000,-0.000275, 0.007904, -0.016785,-0.015625, -0.022552, -0.254242,0.090149, 0.086517, 0.014099
258, 2570000.000000,-0.001160, 0.007751, -0.017395,-0.014343, -0.021912, -0.256439,0.089294, 0.089417, 0.022034
259, 2580000.000000,-0.001282, 0.008759, -0.017120,-0.014343, -0.021912, -0.256439,0.089294, 0.089417, 0.022034
260, 2590000.000000,-0.001282, 0.008759, -0.017120,-0.014343, -0.021912, -0.256439,0.089294, 0.089417, 0.022034
261, 2600000.000000,-0.001282, 0.008759, -0.018158,-0.014343, -0.021912, -0.264252,0.094971, 0.089630, 0.020142
262, 2610000.000000,-0.001312, 0.007812, -0.018158,-0.013428, -0.022675, -0.258453,0.094971, 0.089630, 0.020142
263, 2620000.000000,-0.001312, 0.007812, -0.018158,-0.013428, -0.022675, -0.258453,0.094971, 0.089630, 0.020142
264, 2630000.000000,-0.001862, 0.006744, -0.017914,-0.013428, -0.022675, -0.258453,0.094971, 0.089630, 0.020142
265, 2640000.000000,-0.001862, 0.006744, -0.017914,-0.013428, -0.022675, -0.258453,0.094971, 0.089630, 0.020142
266, 2650000.000000,-0.001434, 0.003418, -0.016602,-0.009674, -0.024536, -0.259583,0.095062, 0.087738, 0.022614
267, 2660000.000000,-0.001434, 0.003418, -0.016602,-0.009674, -0.024536, -0.259583,0.095062, 0.087738, 0.022614
268, 2670000.000000,-0.003510, -0.004578, -0.014404,-0.009674, -0.024536, -0.259583,0.095062, 0.087738, 0.022614
269, 2680000.000000,-0.003510, -0.004578, -0.014404,-0.009674, -0.024536, -0.259583,0.087250, 0.091064, 0.023010
270, 2690000.000000,-0.009796, -0.014587, -0.014099,-0.011322, -0.030548, -0.267242,0.090729, 0.091064, 0.023010
271, 2700000.000000,-0.009796, -0.014587, -0.014099,-0.011322, -0.030548, -0.267242,0.090729, 0.091064, 0.023010
272, 2710000.000000,-0.009796, -0.024750, -0.016449,-0.011322, -0.030548, -0.267242,0.090729, 0.091064, 0.023010
273, 2720000.000000,-0.017487, -0.024750, -0.016449,-0.011322, -0.030548, -0.267242,0.089539, 0.086060, 0.022064
274, 2730000.000000,-0.017487, -0.024750, -0.016449,-0.005035, -0.030365, -0.281555,0.089539, 0.086060, 0.022064
275, 2740000.000000,-0.029419, -0.035156, -0.012085,-0.005035, -0.030365, -0.281555,0.089539, 0.086060, 0.022064
276, 2750000.000000,-0.029419, -0.035156, -0.012085,-0.005035, -0.030365, -0.281555,0.089539, 0.086060, 0.022064
277, 2760000.000000,-0.045441, -0.031860, -0.011536,-0.005035, -0.030365, -0.281555,0.097351, 0.089142, 0.022736
278, 2770000.000000,-0.045441, -0.031860, -0.011536,-0.007324, -0.022491, -0.266968,0.094330, 0.089142, 0.022736
279, 2780000.000000,-0.031158, -0.019226, -0.013275,-0.007324, -0.022491, -0.266968,0.094330, 0.089142, 0.022736
280, 2790000.000000,-0.031158, -0.019226, -0.013275,-0.007324, -0.022491, -0.266968,0.094330, 0.089142, 0.022736
281, 2800000.000000,-0.027588, -0.021118, -0.011627,-0.022949, -0.011017, -0.253662,0.093567, 0.088806, 0.026154
282, 2810000.000000,-0.027588, -0.021118, -0.011627,-0.021027, -0.011017, -0.253662,0.093567, 0.088806, 0.026154
283, 2820000.000000,-0.021240, -0.017395, -0.011505,-0.021027, -0.011017, -0.253662,0.093567, 0.088806, 0.026154
284, 2830000.000000,-0.021240, -0.017395, -0.011505,-0.021027, -0.011017, -0.253662,0.093567, 0.088806, 0.026154
285, 2840000.000000,-0.015594, -0.016052, -0.013275,-0.021027, -0.025818, -0.266693,0.089233, 0.087372, 0.026978
286, 2850000.000000,-0.015594, -0.016052, -0.013275,-0.016205, -0.025818, -0.266693,0.089233, 0.087372, 0.026978
287, 2860000.000000,-0.015594, -0.016052, -0.013275,-0.016205, -0.025818, -0.266693,0.089233, 0.087372, 0.026978
288, 2870000.000000,-0.019440, -0.022461, -0.013641,-0.016205, -0.025818, -0.266693,0.089233, 0.087372, 0.026978
289, 2880000.000000,-0.019440, -0.022461, -0.013641,-0.016205, -0.025818, -0.266693,0.089233, 0.087372, 0.021393
290, 2890000.000000,-0.015076, -0.028656, -0.014923,-0.019348, -0.016663, -0.256317,0.090240, 0.092987, 0.021393
291, 2900000.000000,-0.015076, -0.028656, -0.014923,-0.019348, -0.016663, -0.256317,0.090240, 0.092987, 0.021393
292, 2910000.000000,-0.015076, -0.025696, -0.014984,-0.019348, -0.016663, -0.256317,0.090240, 0.092987, 0.021393
293, 2920000.000000,-0.011932, -0.025696, -0.014984,-0.019348, -0.016663, -0.256317,0.090240, 0.092987, 0.021393
294, 2930000.000000,-0.011932, -0.025696, -0.014984,-0.018463, -0.024963, -0.256775,0.094452, 0.091187, 0.014832
295, 2940000.000000,-0.020172, -0.025299, -0.011780,-0.018463, -0.024963, -0.256775,0.094452, 0.091187, 0.014832
296, 2950000.000000,-0.020172, -0.025299, -0.011780,-0.018463, -0.024963, -0.256775,0.094452, 0.091187, 0.014832
297, 2960000.000000,-0.023773, -0.024658, -0.011566,-0.018463, -0.024963, -0.256775,0.094452, 0.091187, 0.014832
298, 2970000.000000,-0.023773, -0.024658, -0.011566,-0.018463, -0.001526, -0.249725,0.092377, 0.088196, 0.023438
299, 2980000.000000,-0.023773, -0.016846, -0.015442,-0.022583, -0.004059, -0.249725,0.092377, 0.088196, 0.023438
300, 2990000.000000,-0.013062, -0.017365, -0.015442,-0.022583, -0.004059, -0.249725,0.092377, 0.088196, 0.023438
301, 3000000.000000,-0.006958, -0.016144, -0.019531,-0.022583, -0.004059, -0.249725,0.092377, 0.088196, 0.023438
302, 3010000.000000,-0.006958, -0.016144, -0.019531,-0.020386, -0.009094, -0.253510,0.092743, 0.089111, 0.020782
303, 3020000.000000,-0.006958, -0.016144, -0.023071,-0.020386, -0.009094, -0.253510,0.092743, 0.089111, 0.020782
304, 3030000.000000,-0.010315, -0.017151, -0.023071,-0.020386, -0.009094, -0.253510,0.092743, 0.089111, 0.020782
305, 3040000.000000,-0.010315, -0.017151, -0.023071,-0.020386, -0.009094, -0.253510,0.092743, 0.089111, 0.020782
306, 3050000.000000,-0.003418, -0.015076, -0.027374,-0.020386, -0.009094, -0.251129,0.092377, 0.091034, 0.020905
307, 3060000.000000,-0.003418, -0.015076, -0.027374,-0.027893, -0.022034, -0.251129,0.092377, 0.091034, 0.020905
308, 3070000.000000,-0.003418, -0.007263, -0.025848,-0.027893, -0.022034, -0.251129,0.092377, 0.091034, 0.020905
309, 3080000.000000,0.012543, -0.006409, -0.025848,-0.027893, -0.022034, -0.251129,0.092377, 0.091034, 0.020905
310, 3090000.000000,0.012543, -0.006409, -0.025848,-0.027893, -0.022034, -0.251129,0.092377, 0.091034, 0.020905
311, 3100000.000000,0.008759, -0.018768, -0.019531,-0.014862, -0.032471, -0.278076,0.089569, 0.091492, 0.023804
312, 3110000.000000,0.008759, -0.018768, -0.019531,-0.014862, -0.032471, -0.278076,0.089569, 0.091492, 0.023804
313, 3120000.000000,0.000946, -0.036652, -0.014465,-0.014862, -0.032471, -0.278076,0.089569, 0.091492, 0.023804
314, 3130000.000000,0.001007, -0.036652, -0.014465,-0.014862, -0.032471, -0.278076,0.089569, 0.091492, 0.023804
315, 3140000.000000,0.001007, -0.036652, -0.014465,-0.014862, -0.032471, -0.254639,0.084778, 0.091858, 0.023010
316, 3150000.000000,0.005646, -0.032227, -0.015900,-0.023560, -0.007996, -0.252075,0.084778, 0.091858, 0.023010
317, 3160000.000000,0.005646, -0.032227, -0.015900,-0.023560, -0.007996, -0.252075,0.084778, 0.091858, 0.023010
318, 3170000.000000,0.010284, -0.030365, -0.018097,-0.023560, -0.007996, -0.252075,0.084778, 0.091858, 0.023010
319, 3180000.000000,0.010284, -0.030365, -0.018097,-0.023560, -0.007996, -0.252075,0.084778, 0.091858, 0.023010
320, 3190000.000000,0.010284, -0.030365, -0.018097,-0.023193, -0.020660, -0.257355,0.091461, 0.090515, 0.019073
321, 3200000.000000,0.013794, -0.033081, -0.018188,-0.023193, -0.020660, -0.257355,0.091461, 0.090515, 0.019073
322, 3210000.000000,0.013794, -0.033081, -0.018188,-0.023193, -0.020660, -0.257355,0.091461, 0.090515, 0.019073
323, 3220000.000000,0.018433, -0.036102, -0.017334,-0.023193, -0.020660, -0.257355,0.091461, 0.090515, 0.019073
324, 3230000.000000,0.018433, -0.036102, -0.017334,-0.027527, -0.019531, -0.253204,0.090637, 0.088135, 0.016144
325, 3240000.000000,0.020172, -0.040527, -0.016174,-0.027527, -0.019531, -0.253204,0.090637, 0.088135, 0.016144
326, 3250000.000000,0.020172, -0.040527, -0.016174,-0.027527, -0.019531, -0.253204,0.090637, 0.088135, 0.016144
327, 3260000.000000,0.024536, -0.037659, -0.016388,-0.027527, -0.019531, -0.253204,0.090637, 0.088135, 0.016144
328, 3270000.000000,0.024536, -0.037659, -0.016388,-0.027893, -0.018463, -0.246307,0.087311, 0.088226, 0.021118
329, 3280000.000000,0.023193, -0.039276, -0.017059,-0.027893, -0.018463, -0.246307,0.087311, 0.088226, 0.021118
330, 3290000.000000,0.023193, -0.039276, -0.017059,-0.027893, -0.018463, -0.246307,0.087311, 0.088226, 0.021118
331, 3300000.000000,0.023193, -0.039276, -0.017059,-0.027893, -0.018463, -0.246307,0.087311, 0.088226, 0.021118
332, 3310000.000000,0.019562, -0.037170, -0.018677,-0.031158, -0.015869, -0.236908,0.088531, 0.088806, 0.024170
333, 3320000.000000,0.019562, -0.037170, -0.018677,-0.031158, -0.015869, -0.236908,0.088531, 0.088806, 0.024170
334, 3330000.000000,0.017456, -0.032013, -0.019836,-0.031158, -0.015869, -0.236908,0.088531, 0.088806, 0.024170
335, 3340000.000000,0.017456, -0.032013, -0.019836,-0.031158, -0.015869, -0.236908,0.088531, 0.088806, 0.024170
336, 3350000.000000,0.017151, -0.021912, -0.021515,-0.036499, -0.020905, -0.228577,0.081909, 0.088531, 0.017670
337, 3360000.000000,0.017151, -0.021912, -0.021515,-0.036499, -0.020905, -0.228577,0.081909, 0.088531, 0.017670
338, 3370000.000000,0.015869, -0.009857, -0.020844,-0.036499, -0.020905, -0.228577,0.081909, 0.088531, 0.017670
339, 3380000.000000,0.015869, -0.009857, -0.020844,-0.036499, -0.020905, -0.228577,0.081909, 0.088531, 0.017670
340, 3390000.000000,0.015869, 0.002655, -0.020660,-0.035095, -0.025208, -0.224518,0.090668, 0.091095, 0.016144
341, 3400000.000000,0.012665, 0.002655, -0.020660,-0.035095, -0.025208, -0.224518,0.090668, 0.091095, 0.016144
342, 3410000.000000,0.012665, 0.002655, -0.019775,-0.035095, -0.025208, -0.224518,0.090668, 0.091095, 0.016144
343, 3420000.000000,0.014587, 0.013428, -0.019775,-0.035095, -0.025208, -0.224518,0.090668, 0.091095, 0.016144
344, 3430000.000000,0.014587, 0.013428, -0.017578,-0.034546, -0.027344, -0.234039,0.088898, 0.090851, 0.019196
345, 3440000.000000,0.012604, 0.019745, -0.017578,-0.034546, -0.027344, -0.234039,0.088898, 0.090851, 0.019196
346, 3450000.000000,0.012604, 0.019745, -0.017578,-0.034546, -0.027344, -0.234039,0.088898, 0.090851, 0.019196
347, 3460000.000000,0.012146, 0.029694, -0.016510,-0.034546, -0.027344, -0.234039,0.088898, 0.090851, 0.019196
348, 3470000.000000,0.012146, 0.029694, -0.016510,-0.030151, -0.013916, -0.242432,0.092255, 0.090546, 0.020660
349, 3480000.000000,0.011322, 0.036865, -0.018402,-0.030151, -0.013916, -0.242432,0.092255, 0.090546, 0.020660
350, 3490000.000000,0.011322, 0.036865, -0.018402,-0.030151, -0.013916, -0.242432,0.092255, 0.090546, 0.020660
351, 3500000.000000,0.010101, 0.040649, -0.021912,-0.030151, -0.013916, -0.242432,0.092255, 0.090546, 0.020660
352, 3510000.000000,0.010101, 0.040649, -0.021912,-0.030151, -0.033936, -0.239319,0.091858, 0.089172, 0.011841
353, 3520000.000000,0.010101, 0.040649, -0.021912,-0.027863, -0.033936, -0.239319,0.091858, 0.089172, 0.011841
354, 3530000.000000,0.002747, 0.043701, -0.019440,-0.027863, -0.033936, -0.239319,0.091858, 0.089172, 0.011841
355, 3540000.000000,0.002747, 0.043701, -0.019440,-0.027863, -0.033936, -0.239319,0.091858, 0.089172, 0.011841
356, 3550000.000000,-0.007721, 0.052521, -0.016571,-0.027863, -0.026123, -0.242493,0.088470, 0.091553, 0.022552
357, 3560000.000000,-0.007721, 0.052521, -0.016571,-0.030640, -0.026245, -0.242493,0.088470, 0.091553, 0.022552
358, 3570000.000000,-0.011749, 0.065430, -0.014160,-0.030640, -0.026245, -0.242493,0.088470, 0.091553, 0.022552
359, 3580000.000000,-0.011749, 0.065430, -0.014160,-0.030640, -0.026245, -0.242493,0.088470, 0.091553, 0.022552
360, 3590000.000000,-0.048676, 0.022858, -0.008331,-0.030640, -0.013733, -0.190399,0.088074, 0.088593, 0.022675
361, 3600000.000000,-0.048676, 0.022858, -0.008331,-0.057739, -0.013733, -0.190399,0.088074, 0.088593, 0.022675
362, 3610000.000000,-0.048676, 0.022858, -0.008179,-0.057739, -0.013733, -0.190399,0.088074, 0.088593, 0.022675
363, 3620000.000000,-0.039948, 0.030090, -0.008179,-0.057739, -0.013733, -0.190399,0.088074, 0.088196, 0.024292
364, 3630000.000000,-0.022186, 0.029572, -0.017181,-0.005890, -0.000580, -0.294708,0.091644, 0.088196, 0.024292
365, 3640000.000000,-0.022186, 0.029572, -0.017181,-0.005890, -0.000580, -0.294708,0.091644, 0.088196, 0.024292
366, 3650000.000000,-0.006775, 0.005768, -0.016998,-0.005890, -0.000580, -0.294708,0.091644, 0.088196, 0.024292
367, 3660000.000000,-0.006775, 0.005768, -0.016998,-0.005890, -0.000580, -0.294708,0.093353, 0.088623, 0.022430
368, 3670000.000000,0.001068, 0.018921, -0.020203,-0.023438, -0.029114, -0.271332,0.093353, 0.088623, 0.022430
369, 3680000.000000,0.001068, 0.018921, -0.020203,-0.023438, -0.029114, -0.271332,0.093353, 0.088623, 0.022430
370, 3690000.000000,-0.010529, 0.010376, -0.016937,-0.023438, -0.029114, -0.271332,0.093353, 0.088623, 0.022430
371, 3700000.000000,-0.010529, 0.010376, -0.016937,-0.023438, -0.029114, -0.271332,0.093353, 0.088623, 0.018524
372, 3710000.000000,-0.010529, 0.010376, -0.016937,-0.029785, -0.017548, -0.249512,0.091248, 0.090576, 0.018524
373, 3720000.000000,-0.013947, 0.012451, -0.016205,-0.029785, -0.017548, -0.249512,0.091248, 0.090576, 0.018524
374, 3730000.000000,-0.013947, 0.012451, -0.016205,-0.029785, -0.017548, -0.249512,0.091248, 0.090576, 0.018524
375, 3740000.000000,-0.013397, 0.013916, -0.016205,-0.029785, -0.017548, -0.249512,0.091248, 0.090576, 0.010712
376, 3750000.000000,-0.013397, 0.013916, -0.016205,-0.024902, -0.016785, -0.258850,0.090881, 0.091095, 0.015442
377, 3760000.000000,-0.012390, 0.011566, -0.016479,-0.024902, -0.016785, -0.258850,0.090881, 0.091095, 0.015442
378, 3770000.000000,-0.012390, 0.011566, -0.016479,-0.024902, -0.016785, -0.258850,0.090881, 0.091095, 0.015442
379, 3780000.000000,-0.007996, 0.012756, -0.016418,-0.024902, -0.016785, -0.258850,0.090881, 0.091095, 0.015442
380, 3790000.000000,-0.007996, 0.012756, -0.016418,-0.025421, -0.015991, -0.255005,0.093475, 0.090149, 0.014984
381, 3800000.000000,-0.007996, 0.012756, -0.015991,-0.025421, -0.015991, -0.255005,0.093475, 0.090149, 0.014984
382, 3810000.000000,-0.005066, 0.014557, -0.015991,-0.025421, -0.015991, -0.255005,0.093475, 0.090149, 0.014984
383, 3820000.000000,-0.005066, 0.014557, -0.015991,-0.025421, -0.015991, -0.255005,0.093475, 0.090149, 0.022797
384, 3830000.000000,-0.004364, 0.011078, -0.016968,-0.029205, -0.015076, -0.246674,0.091003, 0.087006, 0.018860
385, 3840000.000000,-0.004364, 0.011078, -0.016968,-0.029205, -0.015076, -0.246674,0.091003, 0.087006, 0.018860
386, 3850000.000000,0.000092, 0.015808, -0.015656,-0.029205, -0.015076, -0.246674,0.091003, 0.087006, 0.018860
387, 3860000.000000,0.000092, 0.015808, -0.015656,-0.029205, -0.015076, -0.246674,0.091003, 0.087006, 0.018860
388, 3870000.000000,0.000031, 0.020477, -0.013184,-0.028442, -0.015289, -0.239014,0.092194, 0.089752, 0.022339
389, 3880000.000000,0.000031, 0.020477, -0.013184,-0.028442, -0.015289, -0.239014,0.092194, 0.089752, 0.022339
390, 3890000.000000,0.000031, 0.020477, -0.011688,-0.028442, -0.015289, -0.239014,0.092194, 0.089752, 0.022339
391, 3900000.000000,-0.002258, 0.030304, -0.011688,-0.028442, -0.015289, -0.239014,0.092194, 0.089752, 0.022339
392, 3910000.000000,-0.002258, 0.030304, -0.011688,-0.028442, -0.019714, -0.248047,0.094757, 0.088226, 0.016632
393, 3920000.000000,-0.006592, 0.046570, -0.010223,-0.028229, -0.019714, -0.248047,0.094757, 0.088226, 0.016632
394, 3930000.000000,-0.006592, 0.046570, -0.010223,-0.028229, -0.019714, -0.248047,0.094757, 0.088226, 0.016632
395, 3940000.000000,-0.012360, 0.051666, -0.009277,-0.028229, -0.019714, -0.248047,0.094757, 0.088226, 0.016632
396, 3950000.000000,-0.012360, 0.051666, -0.009277,-0.028229, -0.019714, -0.248047,0.094757, 0.088226, 0.016632
397, 3960000.000000,-0.012360, 0.051666, -0.009277,-0.027405, -0.009430, -0.245178,0.089996, 0.091309, 0.015686
398, 3970000.000000,-0.006317, 0.066803, -0.011414,-0.027405, -0.009430, -0.245178,0.089996, 0.091309, 0.015686
399, 3980000.000000,-0.006317, 0.066803, -0.011414,-0.027405, -0.009430, -0.245178,0.089996, 0.091309, 0.015686
400, 3990000.000000,-0.000183, 0.076080, -0.016235,-0.027405, -0.009430, -0.245178,0.089996, 0.091309, 0.015686
401, 4000000.000000,-0.000183, 0.076080, -0.016235,-0.018066, -0.003174, -0.264679,0.089935, 0.089447, 0.012085
402, 4010000.000000,-0.000183, 0.076080, -0.021576,-0.018066, -0.003174, -0.264679,0.089935, 0.089447, 0.012085
403, 4020000.000000,0.021881, 0.094086, -0.021576,-0.018066, -0.003174, -0.264679,0.089935, 0.089447, 0.012085
404, 4030000.000000,0.021881, 0.094086, -0.021576,-0.018066, -0.003174, -0.264679,0.089935, 0.089447, 0.012085
405, 4040000.000000,0.023315, 0.051453, -0.016907,-0.018066, -0.003174, -0.257233,0.090485, 0.088806, 0.017731
406, 4050000.000000,0.023315, 0.051453, -0.016907,-0.020416, -0.010773, -0.257233,0.090485, 0.088806, 0.017731
407, 4060000.000000,0.030884, 0.042389, -0.014252,-0.020416, -0.010773, -0.257233,0.090485, 0.088806, 0.017731
408, 4070000.000000,0.030884, 0.042389, -0.014252,-0.020416, -0.010773, -0.257233,0.090485, 0.088806, 0.017731
409, 4080000.000000,0.020020, 0.031738, -0.013397,-0.020416, -0.010773, -0.261292,0.087952, 0.084564, 0.018005
410, 4090000.000000,0.020020, 0.031738, -0.013397,-0.022797, -0.023468, -0.261292,0.087952, 0.084564, 0.018005
411, 4100000.000000,0.020020, 0.031738, -0.013397,-0.022797, -0.023468, -0.261292,0.087952, 0.084564, 0.018005
412, 4110000.000000,0.016907, 0.033997, -0.004944,-0.022797, -0.023468, -0.261292,0.087952, 0.084564, 0.018005
413, 4120000.000000,0.016907, 0.033997, -0.004944,-0.022797, -0.023468, -0.261292,0.087952, 0.084564, 0.018005
414, 4130000.000000,-0.011475, 0.013397, 0.001404,-0.028046, -0.012024, -0.252228,0.097168, 0.088928, 0.021271
415, 4140000.000000,-0.011475, 0.013397, 0.001404,-0.028046, -0.012024, -0.252228,0.097168, 0.088928, 0.021271
416, 4150000.000000,-0.011475, 0.013397, 0.009216,-0.028046, -0.012024, -0.252228,0.097168, 0.088928, 0.021271
417, 4160000.000000,0.002930, 0.032898, 0.009125,-0.028046, -0.012024, -0.252228,0.097168, 0.088928, 0.021271
418, 4170000.000000,0.002930, 0.032898, 0.009125,-0.028046, -0.012024, -0.227112,0.087646, 0.091522, 0.019196
419, 4180000.000000,0.009338, 0.035461, 0.012268,-0.043671, -0.013947, -0.227112,0.087646, 0.091522, 0.019196
420, 4190000.000000,0.009338, 0.035461, 0.012268,-0.043671, -0.013947, -0.227112,0.087646, 0.091522, 0.019196
421, 4200000.000000,0.009338, 0.035461, 0.000793,-0.043671, -0.013947, -0.227112,0.087646, 0.091522, 0.019196
422, 4210000.000000,0.009949, 0.073792, 0.000793,-0.043671, -0.013947, -0.227112,0.087646, 0.091522, 0.019196
423, 4220000.000000,0.009949, 0.073792, 0.000793,-0.030029, -0.009613, -0.245911,0.091461, 0.089661, 0.020477
424, 4230000.000000,0.009888, 0.142487, -0.003998,-0.030029, -0.009613, -0.245911,0.091461, 0.089661, 0.020477
425, 4240000.000000,0.009888, 0.142487, -0.003998,-0.030029, -0.009613, -0.245911,0.091461, 0.089661, 0.020477
426, 4250000.000000,0.009888, 0.158112, -0.005371,-0.030029, -0.009613, -0.245911,0.091461, 0.089661, 0.020477
427, 4260000.000000,0.030212, 0.160675, -0.005371,-0.030029, -0.009613, -0.245911,0.092377, 0.087555, 0.018768
428, 4270000.000000,0.030212, 0.160675, -0.005371,-0.025177, -0.016174, -0.247711,0.092377, 0.087555, 0.018768
429, 4280000.000000,0.039673, 0.192566, -0.007172,-0.025177, -0.016174, -0.247711,0.092377, 0.087555, 0.018768
430, 4290000.000000,0.039673, 0.192566, -0.007172,-0.025177, -0.016174, -0.247711,0.092377, 0.087555, 0.018768
431, 4300000.000000,0.068481, 0.204468, -0.010315,-0.025177, -0.016174, -0.247711,0.092377, 0.089203, 0.024811
432, 4310000.000000,0.068481, 0.204468, -0.010315,0.014923, -0.027222, -0.277954,0.094452, 0.089203, 0.024811
433, 4320000.000000,0.123169, 0.195099, -0.004272,0.014923, -0.027222, -0.277954,0.094452, 0.089203, 0.024811
434, 4330000.000000,0.121643, 0.195099, -0.004272,0.014923, -0.027222, -0.277954,0.094452, 0.089203, 0.024811
435, 4340000.000000,0.121643, 0.195099, -0.004272,0.014923, -0.027222, -0.277954,0.094452, 0.089203, 0.024811
436, 4350000.000000,0.102997, 0.099518, -0.017273,-0.001953, -0.046997, -0.278076,0.091034, 0.089142, 0.023712
437, 4360000.000000,0.102997, 0.099518, -0.017273,-0.001953, -0.046997, -0.278076,0.091034, 0.089142, 0.023712
438, 4370000.000000,0.021576, 0.076843, -0.044495,-0.001953, -0.046997, -0.278076,0.091034, 0.089142, 0.023712
439, 4380000.000000,0.021576, 0.076843, -0.044495,-0.001953, -0.046997, -0.278076,0.091034, 0.089142, 0.023712
440, 4390000.000000,0.021576, 0.076843, -0.044495,-0.001953, -0.046997, -0.278076,0.091034, 0.089142, 0.021179
441, 4400000.000000,0.048828, 0.122437, -0.021667,0.002625, -0.034851, -0.251190,0.090729, 0.088806, 0.021179
442, 4410000.000000,0.048828, 0.122437, -0.021667,0.002625, -0.034851, -0.251190,0.090729, 0.088806, 0.021179
443, 4420000.000000,0.053406, 0.118591, -0.016418,0.002625, -0.034851, -0.251190,0.090729, 0.088806, 0.021179
444, 4430000.000000,0.053406, 0.118591, -0.016418,0.002625, -0.034851, -0.251190,0.090729, 0.088806, 0.021179
445, 4440000.000000,0.053406, 0.118591, -0.016418,0.008453, -0.031586, -0.262085,0.089905, 0.087219, 0.024536
446, 4450000.000000,0.017578, 0.168365, -0.008362,0.008453, -0.031586, -0.262085,0.089905, 0.087219, 0.024536
447, 4460000.000000,0.017578, 0.168365, -0.008362,0.008453, -0.031586, -0.262085,0.089905, 0.087219, 0.024536
448, 4470000.000000,-0.002258, 0.166504, 0.009979,0.008453, -0.031586, -0.262085,0.089905, 0.087219, 0.024536
449, 4480000.000000,-0.002258, 0.166504, 0.009979,0.008453, -0.031586, -0.262085,0.089905, 0.087219, 0.019501
450, 4490000.000000,-0.002258, 0.166504, 0.009979,-0.011230, -0.025360, -0.260406,0.093048, 0.088959, 0.019501
451, 4500000.000000,-0.000946, 0.171295, 0.034424,-0.011230, -0.025360, -0.260406,0.093048, 0.088959, 0.019501
452, 4510000.000000,-0.000946, 0.171295, 0.034424,-0.011230, -0.025360, -0.260406,0.093048, 0.088959, 0.019501
453, 4520000.000000,-0.003387, 0.171051, 0.014954,-0.011230, -0.025360, -0.260406,0.093048, 0.088959, 0.019501
454, 4530000.000000,-0.003387, 0.171051, 0.014954,-0.004150, -0.041809, -0.268402,0.093353, 0.089447, 0.021454
455, 4540000.000000,-0.026062, 0.189911, -0.030609,-0.004150, -0.041809, -0.268402,0.093353, 0.089447, 0.021454
456, 4550000.000000,-0.026062, 0.189911, -0.030609,-0.004150, -0.041809, -0.268402,0.093353, 0.089447, 0.021454
457, 4560000.000000,-0.048004, 0.285339, -0.079651,-0.004150, -0.041809, -0.252777,0.092163, 0.087921, 0.026489
458, 4570000.000000,-0.048004, 0.285339, -0.079651,-0.252930, -0.091980, -0.256897,0.092163, 0.087921, 0.026489
459, 4580000.000000,-0.057831, 0.676361, -0.025055,-0.252930, -0.091980, -0.256897,0.092163, 0.087921, 0.026489
460, 4590000.000000,-0.057831, 0.676361, -0.025055,-0.252930, -0.091980, -0.256897,0.092163, 0.087921, 0.026489
461, 4600000.000000,-0.061127, 0.943970, 0.007843,-0.252930, -0.091980, -0.256897,0.092163, 0.090973, 0.015778
462, 4610000.000000,-0.061127, 0.943970, 0.007843,-0.035583, -0.037567, -0.439087,0.097595, 0.090973, 0.015778
463, 4620000.000000,-0.061127, 0.943970, 0.007843,-0.035583, -0.037567, -0.439087,0.097595, 0.090973, 0.015778
464, 4630000.000000,-0.048828, 0.989258, -0.086243,-0.035583, -0.037567, -0.439087,0.097595, 0.090973, 0.015778
465, 4640000.000000,-0.048828, 0.989258, -0.086243,-0.035583, -0.037567, -0.439087,0.097595, 0.090973, 0.015778
466, 4650000.000000,0.094086, 0.989258, -0.250336,-0.099915, -0.032440, -0.522339,0.087341, 0.088470, 0.011810
467, 4660000.000000,0.094086, 0.989258, -0.250336,-0.099915, -0.032440, -0.522339,0.087341, 0.088470, 0.011810
468, 4670000.000000,0.246765, 0.989258, -0.376190,-0.099915, -0.032440, -0.522339,0.087341, 0.088470, 0.011810
469, 4680000.000000,0.246765, 0.989258, -0.376190,-0.099915, -0.032440, -0.522339,0.087341, 0.088470, 0.011810
470, 4690000.000000,0.297058, 0.989258, -0.478149,-0.372803, 0.050690, -0.421112,0.094177, 0.093689, 0.008728
471, 4700000.000000,0.297058, 0.989258, -0.478149,-0.372803, 0.050690, -0.421112,0.094177, 0.093689, 0.008728
472, 4710000.000000,0.180695, 0.989258, -0.656586,-0.372803, 0.050690, -0.421112,0.094177, 0.093689, 0.008728
473, 4720000.000000,0.180695, 0.989258, -0.656586,-0.372803, 0.114777, 0.616455,0.097412, 0.092407, 0.012695
474, 4730000.000000,0.056152, 0.989258, -0.726044,-0.825378, 0.114777, 0.616455,0.097412, 0.092407, 0.012695
475, 4740000.000000,0.056152, 0.989258, -0.726044,-0.825378, 0.114777, 0.616455,0.097412, 0.092407, 0.012695
476, 4750000.000000,0.467743, 0.965546, -0.683289,-0.825378, 0.114777, 0.616455,0.097412, 0.092407, 0.012695
477, 4760000.000000,0.467743, 0.965546, -0.683289,-0.130066, -0.174286, -0.999756,0.089203, 0.093842, 0.016937
478, 4770000.000000,0.467743, 0.856171, -0.617920,-0.126373, -0.174286, -0.999756,0.089203, 0.093842, 0.016937
479, 4780000.000000,-0.083679, 0.855957, -0.617920,-0.126373, -0.174286, -0.999756,0.089203, 0.093842, 0.016937
480, 4790000.000000,-0.083679, 0.855957, -0.617920,-0.126373, -0.174286, -0.999756,0.089203, 0.093842, 0.016937
481, 4800000.000000,-0.009918, -0.002411, -0.384888,-0.126373, -0.361786, -0.920380,0.073578, 0.096619, 0.021881
482, 4810000.000000,-0.009918, -0.002411, -0.384888,-0.278534, -0.362427, -0.920380,0.073578, 0.096619, 0.021881
483, 4820000.000000,-0.162628, -0.551147, -0.300903,-0.278534, -0.362427, -0.920380,0.073578, 0.096619, 0.021881
484, 4830000.000000,-0.162628, -0.551147, -0.300903,-0.278534, -0.362427, -0.920380,0.073578, 0.096619, 0.021881
485, 4840000.000000,-0.303864, -0.531677, -0.204926,-0.278534, -0.362427, -0.920380,0.073578, 0.096619, 0.027283
486, 4850000.000000,-0.303864, -0.531677, -0.204926,-0.296844, -0.235596, -0.327972,0.049530, 0.096497, 0.027283
487, 4860000.000000,-0.303864, -0.531677, -0.142426,-0.296844, -0.235596, -0.327972,0.049530, 0.096497, 0.027283
488, 4870000.000000,-0.314484, -0.451660, -0.147522,-0.296844, -0.235596, -0.327972,0.049530, 0.096497, 0.027283
489, 4880000.000000,-0.314484, -0.451660, -0.147522,-0.296844, -0.235596, -0.327972,0.049530, 0.096497, 0.027283
490, 4890000.000000,-0.083252, -0.441376, -0.092987,-0.161163, -0.146606, -0.547241,0.033905, 0.095856, 0.011353
491, 4900000.000000,-0.083252, -0.441376, -0.092987,-0.161163, -0.146606, -0.547241,0.033905, 0.095856, 0.011353
492, 4910000.000000,0.032043, -0.595612, -0.071808,-0.161163, -0.146606, -0.547241,0.033905, 0.095856, 0.011353
493, 4920000.000000,0.087372, -0.817169, -0.023438,-0.090973, -0.192627, -0.613739,0.024902, 0.094818, -0.008545
494, 4930000.000000,0.087372, -0.817169, -0.023438,-0.090973, -0.192627, -0.613739,0.024902, 0.094818, -0.008545
495, 4940000.000000,0.087372, -0.979889, 0.044220,-0.090973, -0.192627, -0.613739,0.024902, 0.094818, -0.008545
496, 4950000.000000,0.113678, -0.979889, 0.044220,-0.090973, -0.192627, -0.613739,0.024902, 0.094818, -0.008545
497, 4960000.000000,0.113678, -0.979889, 0.044220,0.016449, -0.167511, -0.511505,0.018280, 0.103485, -0.031189
498, 4970000.000000,0.124603, -1.000000, 0.115906,0.016449, -0.167511, -0.511505,0.018280, 0.103485, -0.031189
499, 4980000.000000,0.124603, -1.000000, 0.115906,0.016449, -0.167511, -0.511505,0.018280, 0.103485, -0.031189
500, 4990000.000000,0.136597, -1.000000, 0.162323,0.016449, -0.167511, -0.511505,0.018280, 0.103485, -0.031189
501, 5000000.000000,0.136597, -1.000000, 0.162323,0.016449, -0.167511, -0.250183,0.013458, 0.114685, -0.060516
502, 5010000.000000,0.136597, -1.000000, 0.162323,0.104614, -0.102325, -0.250183,0.013458, 0.114685, -0.060516
503, 5020000.000000,0.167694, -1.000000, 0.186371,0.104614, -0.102325, -0.250183,0.013458, 0.114685, -0.060516
504, 5030000.000000,0.167694, -1.000000, 0.186371,0.104614, -0.102325, -0.250183,0.013458, 0.114685, -0.060516
505, 5040000.000000,0.199463, -1.000000, 0.210632,0.104614, -0.102325, -0.250183,0.013458, 0.114685, -0.060516
506, 5050000.000000,0.199463, -1.000000, 0.210632,0.148010, -0.140228, -0.184143,0.030151, 0.129669, -0.090179
507, 5060000.000000,0.199463, -1.000000, 0.210632,0.148010, -0.140228, -0.184143,0.030151, 0.129669, -0.090179
508, 5070000.000000,0.212677, -1.000000, 0.250824,0.148010, -0.140228, -0.184143,0.030151, 0.129669, -0.090179
509, 5080000.000000,0.212677, -1.000000, 0.250824,0.148010, -0.140228, -0.184143,0.030151, 0.129669, -0.090179
510, 5090000.000000,0.209442, -1.000000, 0.308838,0.148010, -0.140228, -0.332581,0.079468, 0.142395, -0.103149
511, 5100000.000000,0.209442, -1.000000, 0.308838,0.177734, -0.109192, -0.328522,0.079468, 0.142395, -0.103149
512, 5110000.000000,0.209442, -1.000000, 0.355713,0.177734, -0.109192, -0.328522,0.079468, 0.142395, -0.103149
513, 5120000.000000,0.215973, -1.000000, 0.353851,0.177734, -0.109192, -0.328522,0.079468, 0.142395, -0.103149
514, 5130000.000000,0.215973, -1.000000, 0.353851,0.177734, -0.109192, -0.328522,0.079468, 0.142395, -0.103149
515, 5140000.000000,0.253845, -1.000000, 0.366486,0.210938, 0.002319, -0.390472,0.135468, 0.138885, -0.049103
516, 5150000.000000,0.253845, -1.000000, 0.366486,0.210938, 0.002319, -0.390472,0.135468, 0.138885, -0.049103
517, 5160000.000000,0.292908, -1.000000, 0.390350,0.210938, 0.002319, -0.390472,0.135468, 0.138885, -0.049103
518, 5170000.000000,0.292175, -1.000000, 0.390350,0.210938, 0.002319, -0.390472,0.135468, 0.138885, -0.049103
519, 5180000.000000,0.341431, -1.000000, 0.366211,0.304352, 0.112762, -0.401917,0.146423, 0.123169, 0.012329
520, 5190000.000000,0.341431, -1.000000, 0.366211,0.304352, 0.112762, -0.401917,0.146423, 0.123169, 0.012329
521, 5200000.000000,0.341431, -1.000000, 0.249023,0.304352, 0.112762, -0.401917,0.146423, 0.123169, 0.012329
522, 5210000.000000,0.260681, -1.000000, 0.246216,0.304352, 0.112762, -0.401917,0.146423, 0.123169, 0.012329
523, 5220000.000000,0.260681, -1.000000, 0.246216,0.325684, -0.017609, -0.395721,0.104645, 0.107635, 0.041718
524, 5230000.000000,0.201080, -1.000000, 0.226990,0.325684, -0.017609, -0.395721,0.104645, 0.107635, 0.041718
525, 5240000.000000,0.201080, -1.000000, 0.226990,0.325684, -0.017609, -0.395721,0.104645, 0.107635, 0.041718
526, 5250000.000000,0.185944, -1.000000, 0.222229,0.325684, -0.017609, -0.395721,0.104645, 0.107635, 0.041718
527, 5260000.000000,0.185944, -1.000000, 0.222229,0.325684, -0.067810, -0.429077,0.056030, 0.103180, 0.037964
528, 5270000.000000,0.185944, -1.000000, 0.239624,0.418701, -0.067810, -0.429077,0.056030, 0.103180, 0.037964
529, 5280000.000000,0.220367, -1.000000, 0.239624,0.418701, -0.067810, -0.429077,0.056030, 0.103180, 0.037964
530, 5290000.000000,0.220367, -1.000000, 0.239624,0.418701, -0.067810, -0.429077,0.056030, 0.103180, 0.037964
531, 5300000.000000,0.267578, -1.000000, 0.271545,0.418701, -0.067810, -0.382477,0.011230, 0.097168, -0.003113
532, 5310000.000000,0.267578, -1.000000, 0.271545,0.544708, -0.112396, -0.382477,0.011230, 0.097168, -0.003113
533, 5320000.000000,0.302612, -1.000000, 0.323700,0.544708, -0.112396, -0.382477,0.011230, 0.097168, -0.003113
534, 5330000.000000,0.302612, -1.000000, 0.323700,0.544708, -0.112396, -0.382477,0.011230, 0.097168, -0.003113
535, 5340000.000000,0.316376, -1.000000, 0.335785,0.544708, -0.112396, -0.382477,0.011230, 0.097168, -0.003113
536, 5350000.000000,0.316376, -1.000000, 0.335785,0.930969, 0.048615, -0.159698,-0.019775, 0.103241, -0.040405
537, 5360000.000000,0.316376, -1.000000, 0.335785,0.930969, 0.048615, -0.159698,-0.019775, 0.103241, -0.040405
538, 5370000.000000,0.361298, -0.996216, 0.286926,0.930969, 0.048615, -0.159698,-0.019775, 0.103241, -0.040405
539, 5380000.000000,0.361298, -0.996216, 0.286926,0.930969, 0.048615, -0.159698,-0.019775, 0.103241, -0.091766
540, 5390000.000000,0.426483, -0.877106, 0.133514,0.999756, 0.250641, -0.170746,-0.011261, 0.119629, -0.091766
541, 5400000.000000,0.426483, -0.877106, 0.133514,0.999756, 0.250641, -0.170746,-0.011261, 0.119629, -0.091766
542, 5410000.000000,0.323608, -0.611542, -0.017120,0.999756, 0.250641, -0.170746,-0.011261, 0.119629, -0.091766
543, 5420000.000000,0.323608, -0.611542, -0.017120,0.999756, 0.032166, -0.128479,-0.008850, 0.130249, -0.124969
544, 5430000.000000,0.209198, -0.381958, -0.141327,0.999756, 0.032166, -0.128479,-0.008850, 0.130249, -0.124969
545, 5440000.000000,0.209198, -0.381958, -0.141327,0.999756, 0.032166, -0.128479,-0.008850, 0.130249, -0.124969
546, 5450000.000000,0.093475, -0.166229, -0.190002,0.999756, 0.032166, -0.128479,-0.008850, 0.130249, -0.124969
547, 5460000.000000,0.093475, -0.166229, -0.190002,0.999756, 0.032166, 0.253479,-0.009552, 0.128357, -0.143585
548, 5470000.000000,0.068665, 0.141724, -0.156342,0.999756, -0.237396, 0.253479,-0.009552, 0.128357, -0.143585
549, 5480000.000000,0.068665, 0.141724, -0.156342,0.999756, -0.237396, 0.253479,-0.009552, 0.128357, -0.143585
550, 5490000.000000,0.068665, 0.141724, -0.037323,0.999756, -0.237396, 0.253479,-0.009552, 0.128357, -0.143585
551, 5500000.000000,0.030609, 0.499390, -0.037323,0.999756, -0.237396, 0.253479,-0.017365, 0.132050, -0.152130
552, 5510000.000000,0.030609, 0.499390, -0.037323,0.862030, -0.007111, 0.569733,-0.019012, 0.132050, -0.152130
553, 5520000.000000,-0.106384, 0.917694, -0.015076,0.862030, -0.007111, 0.569733,-0.019012, 0.132050, -0.152130
554, 5530000.000000,-0.106384, 0.917694, -0.015076,0.862030, -0.007111, 0.569733,-0.019012, 0.132050, -0.152130
555, 5540000.000000,-0.349762, 0.989258, -0.104919,0.862030, -0.007111, 0.569733,-0.019012, 0.132050, -0.152130
556, 5550000.000000,-0.349762, 0.989258, -0.104919,0.151855, -0.597839, -0.999756,-0.043579, 0.114441, -0.183044
557, 5560000.000000,-0.813721, 0.809387, 0.183563,0.151855, -0.597839, -0.999756,-0.043579, 0.114441, -0.183044
558, 5570000.000000,-0.813721, 0.809387, 0.183563,0.151855, -0.597839, -0.999756,-0.043579, 0.114441, -0.183044
559, 5580000.000000,0.285126, 0.394562, -0.206207,0.035889, 0.651031, -0.452026,-0.050323, 0.119049, -0.175262
560, 5590000.000000,0.285126, 0.394562, 0.387543,0.035889, 0.651031, -0.452026,-0.050323, 0.119049, -0.175262
561, 5600000.000000,-0.279907, 0.384552, 0.389435,0.035889, 0.651031, -0.452026,-0.050323, 0.119049, -0.175262
562, 5610000.000000,-0.279907, 0.384552, -0.040253,0.035889, 0.651031, -0.452026,-0.050323, 0.103424, -0.183197
563, 5620000.000000,-0.803406, 0.012512, -0.043274,0.179901, -0.339447, 0.012878,-0.055756, 0.104034, -0.183197
564, 5630000.000000,-0.803406, 0.012512, -0.043274,0.179901, -0.339447, 0.012878,-0.055756, 0.104034, -0.183197
565, 5640000.000000,0.225494, 0.054657, 0.019226,0.179901, -0.339447, 0.012878,-0.055756, 0.104034, -0.183197
566, 5650000.000000,0.225494, 0.054657, 0.019226,0.179901, -0.339447, 0.012878,-0.055756, 0.104034, -0.183197
567, 5660000.000000,0.093842, 0.169067, -0.059174,-0.033905, 0.110474, -0.311890,-0.062408, 0.108368, -0.182129
568, 5670000.000000,0.093842, 0.169067, -0.059174,-0.033905, 0.110474, -0.311890,-0.062408, 0.108368, -0.182129
569, 5680000.000000,0.289154, 0.103485, -0.168121,-0.033905, 0.110474, -0.311890,-0.062408, 0.108368, -0.182129
570, 5690000.000000,0.290649, 0.103485, -0.168121,-0.033905, 0.110474, -0.311890,-0.062408, 0.108368, -0.182129
571, 5700000.000000,0.290649, 0.103485, -0.168121,0.026733, 0.014221, -0.278290,-0.058441, 0.106049, -0.183350
572, 5710000.000000,0.060699, 0.041687, -0.002228,0.026733, 0.014221, -0.278290,-0.058441, 0.106049, -0.183350
573, 5720000.000000,0.060699, 0.041687, -0.002228,0.026733, 0.014221, -0.278290,-0.058441, 0.106049, -0.183350
574, 5730000.000000,-0.020935, -0.003723, -0.030396,0.026733, 0.014221, -0.278290,-0.058441, 0.106049, -0.183350
575, 5740000.000000,-0.020935, -0.003723, -0.030396,-0.019653, -0.017761, -0.257080,-0.062042, 0.105133, -0.182495
576, 5750000.000000,-0.012939, 0.021301, -0.044678,-0.019653, -0.017761, -0.257080,-0.062042, 0.105133, -0.182495
577, 5760000.000000,-0.012939, 0.021301, -0.044678,-0.019653, -0.017761, -0.257080,-0.062042, 0.105133, -0.182495
578, 5770000.000000,-0.010315, 0.041992, -0.011475,-0.019653, -0.017761, -0.257080,-0.055664, 0.104828, -0.185089
579, 5780000.000000,-0.010315, 0.041992, 0.004150,-0.050446, -0.013031, -0.233398,-0.055664, 0.104828, -0.185089
580, 5790000.000000,-0.013214, 0.078552, 0.000671,-0.050446, -0.013031, -0.233398,-0.055664, 0.104828, -0.185089
581, 5800000.000000,-0.013214, 0.078552, 0.000671,-0.050446, -0.013031, -0.233398,-0.055664, 0.104828, -0.185089
582, 5810000.000000,0.027588, 0.142853, 0.069794,0.001038, -0.033752, -0.274811,-0.061096, 0.107452, -0.177155
583, 5820000.000000,0.027588, 0.142853, 0.069794,0.001038, -0.033752, -0.274811,-0.061096, 0.107452, -0.177155
584, 5830000.000000,0.031158, 0.136139, 0.040741,0.001038, -0.033752, -0.274811,-0.061096, 0.107452, -0.177155
585, 5840000.000000,0.031158, 0.136139, 0.040741,0.001038, -0.033752, -0.274811,-0.061096, 0.107452, -0.177155
586, 5850000.000000,0.053925, 0.115021, 0.022461,-0.027679, -0.035461, -0.263550,-0.066681, 0.106567, -0.176392
587, 5860000.000000,0.053925, 0.115021, 0.022461,-0.027679, -0.035461, -0.263550,-0.066681, 0.106567, -0.176392
588, 5870000.000000,0.042816, 0.191498, 0.007141,-0.027679, -0.035461, -0.263550,-0.066681, 0.106567, -0.176392
589, 5880000.000000,0.042816, 0.191498, 0.007141,-0.027679, -0.035461, -0.263550,-0.066681, 0.106567, -0.176392
590, 5890000.000000,0.042816, 0.191498, 0.007141,-0.027679, -0.004456, -0.254486,-0.071045, 0.106415, -0.179077
591, 5900000.000000,0.003845, 0.273041, 0.078949,0.002319, -0.004456, -0.254486,-0.071045, 0.106415, -0.179077
592, 5910000.000000,0.003845, 0.273041, 0.078949,0.002319, -0.004456, -0.254486,-0.071045, 0.106415, -0.179077
593, 5920000.000000,0.024597, 0.383301, 0.139771,0.002319, -0.004456, -0.254486,-0.071045, 0.106415, -0.179077
594, 5930000.000000,0.024597, 0.383301, 0.139771,0.002319, -0.004456, -0.254486,-0.071045, 0.106171, -0.160309
595, 5940000.000000,-0.067230, 0.741791, 0.125519,-0.380219, -0.066010, -0.413513,-0.077148, 0.106171, -0.160309
596, 5950000.000000,-0.067230, 0.741791, 0.125519,-0.380219, -0.066010, -0.413513,-0.077148, 0.106171, -0.160309
597, 5960000.000000,-0.167267, 0.910736, 0.080505,-0.380219, -0.066010, -0.413513,-0.077148, 0.106171, -0.160309
598, 5970000.000000,-0.167267, 0.910736, 0.080505,-0.486450, 0.324005, -0.644806,-0.089813, 0.105835, -0.141571
599, 5980000.000000,0.250854, 0.989258, 0.044891,-0.486450, 0.324005, -0.644806,-0.089813, 0.105835, -0.141571
600, 5990000.000000,0.250854, 0.989258, 0.044891,-0.486450, 0.324005, -0.644806,-0.089813, 0.105835, -0.141571
601, 6000000.000000,0.511414, 0.989258, -0.188049,-0.486450, 0.324005, -0.644806,-0.089813, 0.105835, -0.141571
602, 6010000.000000,0.511414, 0.989258, -0.188049,-0.127075, -0.103577, -0.374969,-0.109436, 0.098663, -0.084930
603, 6020000.000000,0.511414, 0.989258, -0.188049,-0.127075, -0.103577, -0.374969,-0.109436, 0.098663, -0.084930
604, 6030000.000000,0.344727, 0.989258, -0.294739,-0.127075, -0.103577, -0.374969,-0.109436, 0.098663, -0.084930
605, 6040000.000000,0.344727, 0.989258, -0.294739,-0.127075, -0.103577, -0.374969,-0.109436, 0.098663, -0.084930
606, 6050000.000000,0.277466, 0.989258, -0.089020,0.935425, -0.500397, -0.273743,-0.104523, 0.103119, -0.008179
607, 6060000.000000,0.277466, 0.989258, -0.089020,0.935577, -0.500397, -0.273743,-0.104523, 0.103119, -0.008179
608, 6070000.000000,0.476807, 0.936890, 0.178497,0.935577, -0.500397, -0.273743,-0.104523, 0.103119, -0.008179
609, 6080000.000000,0.476807, 0.936890, 0.178497,0.935577, -0.500397, -0.273743,-0.104523, 0.103119, -0.008179
610, 6090000.000000,0.265869, 0.975342, -0.044739,0.935577, -0.500397, -0.992493,-0.078430, 0.107727, 0.014221
611, 6100000.000000,0.268951, 0.975342, -0.044739,-0.158081, -0.014893, -0.999756,-0.078430, 0.107727, 0.014221
612, 6110000.000000,0.268951, 0.975342, -0.044739,-0.158081, -0.014893, -0.999756,-0.078430, 0.107727, 0.014221
613, 6120000.000000,0.213959, 0.815918, 0.116608,-0.158081, -0.014893, -0.999756,-0.078430, 0.107727, 0.014221
614, 6130000.000000,0.213959, 0.815918, 0.116608,-0.158081, -0.014893, -0.999756,-0.054993, 0.116791, 0.003296
615, 6140000.000000,0.065002, 0.509521, 0.113281,-0.203827, 0.027344, -0.759277,-0.057526, 0.116791, 0.003296
616, 6150000.000000,0.065002, 0.509521, 0.113281,-0.203827, 0.027344, -0.759277,-0.057526, 0.116791, 0.003296
617, 6160000.000000,0.089447, 0.546539, 0.068634,-0.203827, 0.027344, -0.759277,-0.057526, 0.116791, 0.003296
618, 6170000.000000,0.089447, 0.546539, 0.068634,-0.243927, 0.058014, -0.607666,-0.049347, 0.122620, 0.002930
619, 6180000.000000,0.288452, 0.860748, 0.122131,-0.243927, 0.058014, -0.607666,-0.049347, 0.122620, 0.002930
620, 6190000.000000,0.288452, 0.860748, 0.122131,-0.243927, 0.058014, -0.607666,-0.049347, 0.122620, 0.002930
621, 6200000.000000,0.274872, 0.986420, -0.107330,-0.243927, 0.058014, -0.607666,-0.049347, 0.122620, 0.002930
622, 6210000.000000,0.274872, 0.986420, -0.107330,-0.314240, 0.079346, -0.995392,-0.040558, 0.126801, 0.015015
623, 6220000.000000,0.282898, 0.934021, -0.315704,-0.318054, 0.079346, -0.995392,-0.040558, 0.126801, 0.015015
624, 6230000.000000,0.282898, 0.934021, -0.315704,-0.318054, 0.079346, -0.995392,-0.040558, 0.126801, 0.015015
625, 6240000.000000,0.282898, 0.934021, -0.393829,-0.318054, 0.079346, -0.995392,-0.040558, 0.126801, 0.015015
626, 6250000.000000,0.203094, 0.630493, -0.396423,-0.310242, 0.011444, -0.999756,-0.037445, 0.124786, 0.008789
627, 6260000.000000,0.203094, 0.630493, -0.396423,-0.308502, 0.011444, -0.999756,-0.037445, 0.124786, 0.008789
628, 6270000.000000,0.132416, 0.292603, -0.460144,-0.308502, 0.011444, -0.999756,-0.037445, 0.124786, 0.008789
629, 6280000.000000,0.132416, 0.292603, -0.460144,-0.308502, 0.011444, -0.999756,-0.037445, 0.124786, 0.008789
630, 6290000.000000,0.026184, 0.016663, -0.501373,-0.308502, -0.011993, -0.789337,-0.032959, 0.123077, -0.001892
631, 6300000.000000,0.026184, 0.016663, -0.501373,-0.401093, -0.009521, -0.789337,-0.032959, 0.123077, -0.001892
632, 6310000.000000,-0.023560, -0.182983, -0.520569,-0.401093, -0.009521, -0.789337,-0.032959, 0.123077, -0.001892
633, 6320000.000000,-0.023560, -0.182983, -0.520569,-0.401093, -0.009521, -0.789337,-0.032959, 0.123077, -0.001892
634, 6330000.000000,-0.023560, -0.182983, -0.506561,-0.401093, -0.009521, -0.789337,-0.032959, 0.123077, -0.023163
635, 6340000.000000,-0.037720, -0.370361, -0.506561,-0.400940, -0.122040, -0.620850,-0.034424, 0.119843, -0.023163
636, 6350000.000000,-0.037720, -0.370361, -0.459686,-0.400940, -0.122040, -0.620850,-0.034424, 0.119843, -0.023163
637, 6360000.000000,-0.081818, -0.567749, -0.454865,-0.400940, -0.122040, -0.620850,-0.034424, 0.119843, -0.023163
638, 6370000.000000,-0.081818, -0.809937, -0.381500,-0.296814, -0.219055, -0.609222,-0.037659, 0.118073, -0.053528
639, 6380000.000000,-0.168610, -0.807526, -0.381500,-0.296814, -0.219055, -0.609222,-0.037659, 0.118073, -0.053528
640, 6390000.000000,-0.210266, -0.982452, -0.301514,-0.296814, -0.219055, -0.609222,-0.037659, 0.118073, -0.053528
641, 6400000.000000,-0.210266, -0.982452, -0.301514,-0.296814, -0.219055, -0.609222,-0.037659, 0.118073, -0.053528
642, 6410000.000000,-0.210266, -0.982452, -0.239899,-0.074402, -0.202545, -0.569244,-0.028687, 0.119659, -0.068512
643, 6420000.000000,-0.171295, -1.000000, -0.239899,-0.074402, -0.202545, -0.569244,-0.028687, 0.119659, -0.068512
644, 6430000.000000,-0.171295, -1.000000, -0.239899,-0.074402, -0.202545, -0.569244,-0.028687, 0.119659, -0.068512
645, 6440000.000000,-0.099731, -1.000000, -0.202972,-0.074402, -0.202545, -0.569244,-0.028687, 0.119659, -0.068512
646, 6450000.000000,-0.099731, -1.000000, -0.202972,0.077637, -0.167297, -0.396118,-0.008667, 0.116821, -0.088226
647, 6460000.000000,-0.039917, -1.000000, -0.240204,0.077637, -0.167297, -0.396118,-0.008667, 0.116821, -0.088226
648, 6470000.000000,-0.039917, -1.000000, -0.240204,0.077637, -0.167297, -0.396118,-0.008667, 0.116821, -0.088226
649, 6480000.000000,0.034973, -1.000000, -0.126404,0.077637, -0.167297, -0.396118,-0.008667, 0.116821, -0.088226
650, 6490000.000000,0.034973, -1.000000, -0.126404,0.300903, -0.288788, -0.398621,0.022156, 0.117035, -0.082764
651, 6500000.000000,0.034973, -1.000000, -0.048279,0.300903, -0.288788, -0.398621,0.022156, 0.117035, -0.082764
652, 6510000.000000,0.214874, -1.000000, -0.048248,0.300903, -0.288788, -0.398621,0.022156, 0.117035, -0.082764
653, 6520000.000000,0.214874, -1.000000, -0.048248,0.300903, -0.288788, -0.398621,0.022156, 0.117035, -0.082764
654, 6530000.000000,0.317719, -1.000000, 0.054504,0.300903, -0.266144, -0.430481,0.038452, 0.114319, -0.089203
655, 6540000.000000,0.317719, -1.000000, 0.054504,0.347351, -0.266144, -0.430481,0.038452, 0.114319, -0.089203
656, 6550000.000000,0.393524, -1.000000, 0.169617,0.347351, -0.266144, -0.430481,0.038452, 0.114319, -0.089203
657, 6560000.000000,0.393524, -1.000000, 0.169617,0.347351, -0.266144, -0.430481,0.038452, 0.114319, -0.089203
658, 6570000.000000,0.485687, -1.000000, 0.253265,0.414612, -0.056671, -0.530365,0.049683, 0.110870, -0.086060
659, 6580000.000000,0.485687, -1.000000, 0.253265,0.414612, -0.056671, -0.530365,0.049683, 0.110870, -0.086060
660, 6590000.000000,0.601776, -1.000000, 0.298004,0.414612, -0.056671, -0.530365,0.049683, 0.110870, -0.086060
661, 6600000.000000,0.601776, -1.000000, 0.298004,0.414612, -0.056671, -0.530365,0.049683, 0.110870, -0.086060
662, 6610000.000000,0.601776, -1.000000, 0.313660,0.469299, 0.054260, -0.535797,0.052979, 0.115845, -0.094788
663, 6620000.000000,0.722137, -1.000000, 0.313660,0.471741, 0.054260, -0.535797,0.052979, 0.115845, -0.094788
664, 6630000.000000,0.722137, -1.000000, 0.313660,0.471741, 0.054260, -0.535797,0.052979, 0.115845, -0.094788
665, 6640000.000000,0.772827, -1.000000, 0.355133,0.471741, 0.054260, -0.535797,0.052979, 0.115845, -0.094788
666, 6650000.000000,0.772827, -1.000000, 0.355133,0.471741, -0.141052, -0.620300,0.068115, 0.130829, -0.111969
667, 6660000.000000,0.674072, -1.000000, 0.459961,0.572571, -0.142303, -0.620300,0.068115, 0.130829, -0.111969
668, 6670000.000000,0.674072, -1.000000, 0.459961,0.572571, -0.142303, -0.620300,0.068115, 0.130829, -0.111969
669, 6680000.000000,0.479370, -1.000000, 0.605225,0.572571, -0.142303, -0.620300,0.068115, 0.130829, -0.111969
670, 6690000.000000,0.479370, -1.000000, 0.605225,0.572571, -0.142303, -0.620300,0.068115, 0.130829, -0.111969
671, 6700000.000000,0.479370, -1.000000, 0.605225,0.762024, -0.224884, -0.853394,0.099152, 0.139008, -0.099243
672, 6710000.000000,0.263580, -1.000000, 0.726776,0.762024, -0.224884, -0.853394,0.099152, 0.139008, -0.099243
673, 6720000.000000,0.263580, -1.000000, 0.726776,0.762024, -0.224884, -0.853394,0.099152, 0.139008, -0.099243
674, 6730000.000000,0.102875, -1.000000, 0.777649,0.762024, -0.224884, -0.853394,0.099152, 0.139008, -0.099243
675, 6740000.000000,0.102875, -1.000000, 0.777649,0.999756, -0.103394, -0.904358,0.120148, 0.141205, -0.081879
676, 6750000.000000,0.034332, -1.000000, 0.729218,0.999756, -0.103394, -0.904358,0.120148, 0.141205, -0.081879
677, 6760000.000000,0.034332, -1.000000, 0.729218,0.999756, -0.103394, -0.904358,0.120148, 0.141205, -0.081879
678, 6770000.000000,0.034332, -1.000000, 0.729218,0.999756, -0.103394, -0.904358,0.120148, 0.141205, -0.081879
679, 6780000.000000,0.183441, -1.000000, 0.567932,0.999756, 0.137268, -0.102203,0.140320, 0.143402, -0.067322
680, 6790000.000000,0.183441, -0.968750, 0.313385,0.999756, 0.137268, -0.102203,0.140320, 0.143402, -0.067322
681, 6800000.000000,0.431458, -0.968597, 0.313385,0.999756, 0.137268, -0.102203,0.140320, 0.143402, -0.067322
682, 6810000.000000,0.431458, -0.968597, 0.313385,0.999756, 0.137268, -0.102203,0.140320, 0.143402, -0.067322
683, 6820000.000000,0.522095, -0.634033, 0.102631,0.999756, -0.081573, -0.036316,0.142883, 0.145325, -0.056213
684, 6830000.000000,0.522095, -0.634033, 0.102631,0.999756, -0.081573, -0.036316,0.142883, 0.145325, -0.056213
685, 6840000.000000,0.513702, -0.321045, 0.028351,0.999756, -0.081573, -0.036316,0.142883, 0.145325, -0.056213
686, 6850000.000000,0.513702, -0.321045, 0.028351,0.999756, -0.081573, -0.036316,0.142883, 0.145325, -0.056213
687, 6860000.000000,0.413788, -0.113586, 0.008240,0.999756, 0.040405, 0.365295,0.143768, 0.148407, -0.047699
688, 6870000.000000,0.413788, -0.113586, 0.008240,0.999756, 0.040405, 0.365295,0.143768, 0.148407, -0.047699
689, 6880000.000000,0.322937, 0.237457, -0.054871,0.999756, 0.040405, 0.365295,0.143768, 0.148407, -0.047699
690, 6890000.000000,0.322937, 0.237457, -0.054871,0.999756, 0.040405, 0.365295,0.143768, 0.148407, -0.047699
691, 6900000.000000,0.322937, 0.237457, -0.125183,0.958801, 0.025116, 0.126648,0.140961, 0.146149, -0.056091
692, 6910000.000000,0.311493, 0.481201, -0.125793,0.958801, 0.025116, 0.126648,0.140961, 0.146149, -0.056091
693, 6920000.000000,0.311493, 0.481201, -0.125793,0.958801, 0.025116, 0.126648,0.140961, 0.146149, -0.056091
694, 6930000.000000,0.376801, 0.655518, -0.116882,0.958801, 0.025116, 0.126648,0.140961, 0.146149, -0.056091
695, 6940000.000000,0.376801, 0.655518, -0.116882,0.762604, 0.396118, 0.638733,0.133667, 0.151337, -0.062286
696, 6950000.000000,0.547089, 0.874542, -0.229401,0.762604, 0.396118, 0.638733,0.133667, 0.151337, -0.062286
697, 6960000.000000,0.547089, 0.874542, -0.229401,0.762604, 0.396118, 0.638733,0.133667, 0.151337, -0.062286
698, 6970000.000000,0.539948, 0.989136, -0.765289,0.762604, 0.396118, 0.638733,0.133667, 0.151337, -0.062286
699, 6980000.000000,0.539948, 0.989136, -0.765289,0.337463, -0.986908, -0.994080,0.116119, 0.141937, -0.088287
700, 6990000.000000,-0.827881, 0.984222, -0.555573,0.337463, -0.986908, -0.994080,0.116119, 0.141937, -0.088287
701, 7000000.000000,-0.827881, 0.984222, -0.555573,0.337463, -0.986908, -0.994080,0.116119, 0.141937, -0.088287
702, 7010000.000000,-0.625092, 0.872925, 0.050415,0.337463, 0.966217, -0.905273,0.108795, 0.133209, -0.099884
703, 7020000.000000,-0.625092, 0.872925, 0.050415,-0.175323, 0.961639, -0.905273,0.108795, 0.133209, -0.099884
704, 7030000.000000,-0.151978, 0.615692, 0.010986,-0.175323, 0.961639, -0.905273,0.108795, 0.133209, -0.099884
705, 7040000.000000,-0.151978, 0.615692, 0.010986,-0.175323, 0.961639, -0.905273,0.108795, 0.133209, -0.099884
706, 7050000.000000,-0.847839, -0.038269, -0.130157,-0.175323, -0.336029, -0.070007,0.107666, 0.119659, -0.109039
707, 7060000.000000,-0.847839, -0.038269, -0.130157,0.185455, -0.336029, -0.070007,0.107666, 0.119659, -0.109039
708, 7070000.000000,-0.126892, 0.118408, 0.010498,0.185455, -0.336029, -0.070007,0.107666, 0.119659, -0.109039
709, 7080000.000000,-0.126892, 0.118408, 0.010498,0.185455, -0.336029, -0.070007,0.107666, 0.119659, -0.109039
710, 7090000.000000,0.134888, 0.005066, 0.082886,-0.008209, 0.079163, -0.273407,0.100800, 0.119324, -0.101776
711, 7100000.000000,0.134888, 0.005066, 0.082886,-0.008209, 0.079163, -0.273407,0.100800, 0.119324, -0.101776
712, 7110000.000000,0.134888, 0.005066, -0.051331,-0.008209, 0.079163, -0.273407,0.100800, 0.119324, -0.101776
713, 7120000.000000,0.450043, 0.036621, -0.051331,-0.008209, 0.079163, -0.273407,0.100800, 0.119324, -0.101776
714, 7130000.000000,0.450043, 0.036621, -0.051331,0.011566, 0.001038, -0.286621,0.107147, 0.120453, -0.104370
715, 7140000.000000,0.039124, -0.097168, -0.097504,0.011566, 0.001038, -0.286621,0.107147, 0.120453, -0.104370
716, 7150000.000000,0.039124, -0.097168, -0.097504,0.011566, 0.001038, -0.286621,0.107147, 0.120453, -0.104370
717, 7160000.000000,0.022583, -0.092773, 0.030762,0.011566, 0.001038, -0.286621,0.107147, 0.120453, -0.104370
718, 7170000.000000,0.022583, -0.092773, 0.030762,0.011566, -0.031311, -0.235565,0.107361, 0.122284, -0.104736
719, 7180000.000000,-0.052338, -0.053192, -0.007263,-0.034607, -0.031311, -0.235565,0.107361, 0.122284, -0.104736
720, 7190000.000000,-0.052338, -0.053192, -0.007263,-0.034607, -0.031311, -0.235565,0.107361, 0.122284, -0.104736
721, 7200000.000000,-0.169159, 0.073669, 0.008179,-0.034607, -0.031311, -0.235565,0.107361, 0.122284, -0.104736
722, 7210000.000000,-0.169159, 0.073669, 0.008179,-0.024353, -0.039948, -0.257111,0.105469, 0.120209, -0.101532
723, 7220000.000000,-0.169159, 0.097107, 0.029663,-0.024353, -0.039948, -0.257111,0.105469, 0.120209, -0.101532
724, 7230000.000000,-0.010040, 0.095551, 0.029663,-0.024353, -0.039948, -0.257111,0.105469, 0.120209, -0.101532
725, 7240000.000000,-0.010040, 0.095551, 0.029663,-0.024353, -0.039948, -0.257111,0.105469, 0.120209, -0.101532
726, 7250000.000000,0.057800, 0.145386, 0.005035,-0.024353, -0.039948, -0.264923,0.110748, 0.119659, -0.106750
727, 7260000.000000,0.057800, 0.145386, 0.005035,-0.030151, -0.023956, -0.263550,0.110748, 0.119659, -0.106750
728, 7270000.000000,-0.011902, 0.206848, 0.023804,-0.030151, -0.023956, -0.263550,0.110748, 0.119659, -0.106750
729, 7280000.000000,-0.011902, 0.206848, 0.023804,-0.030151, -0.023956, -0.263550,0.110748, 0.119659, -0.106750
730, 7290000.000000,-0.001556, 0.298187, 0.050446,-0.030151, -0.023956, -0.256378,0.100769, 0.116089, -0.106232
731, 7300000.000000,-0.001556, 0.298187, 0.050446,-0.097656, 0.073273, -0.256378,0.100769, 0.116089, -0.106232
732, 7310000.000000,0.131256, 0.550873, 0.002258,-0.097656, 0.073273, -0.256378,0.100769, 0.116089, -0.106232
733, 7320000.000000,0.125366, 0.550873, 0.002258,-0.097656, 0.073273, -0.256378,0.100769, 0.116089, -0.106232
734, 7330000.000000,0.125366, 0.550873, -0.247742,-0.097656, 0.073273, -0.723511,0.084778, 0.127319, -0.103973
735, 7340000.000000,0.436615, 0.866455, -0.242310,-0.774780, 0.234589, -0.723511,0.084778, 0.127319, -0.103973
736, 7350000.000000,0.436615, 0.866455, -0.242310,-0.774780, 0.234589, -0.723511,0.084778, 0.127319, -0.103973
737, 7360000.000000,0.914459, 0.989227, -0.397217,-0.774780, 0.234589, -0.723511,0.084778, 0.127319, -0.103973
738, 7370000.000000,0.914459, 0.989227, -0.397217,-0.774780, 0.234589, -0.723511,0.084778, 0.127319, -0.103973
739, 7380000.000000,0.992035, 0.989258, -0.488007,-0.067535, 0.087799, -0.711761,0.051666, 0.138153, -0.103394
740, 7390000.000000,0.992035, 0.989258, -0.488007,-0.067535, 0.087799, -0.711761,0.051666, 0.138153, -0.103394
741, 7400000.000000,0.677002, 0.989258, -0.539215,-0.067535, 0.087799, -0.711761,0.051666, 0.138153, -0.103394
742, 7410000.000000,0.677002, 0.989258, -0.539215,0.561951, -0.391205, 0.307098,0.019989, 0.140167, -0.084320
743, 7420000.000000,0.256897, 0.957275, -0.478027,0.561951, -0.391205, 0.307098,0.019989, 0.140167, -0.084320
744, 7430000.000000,0.256897, 0.957275, -0.478027,0.561951, -0.391205, 0.307098,0.019989, 0.140167, -0.084320
745, 7440000.000000,0.298950, 0.865692, -0.334625,0.561951, -0.391205, 0.307098,0.019989, 0.140167, -0.084320
746, 7450000.000000,0.298950, 0.865692, -0.334625,-0.445862, -0.151062, -0.994019,0.005615, 0.139832, -0.072510
747, 7460000.000000,0.298950, 0.985992, -0.604340,-0.450348, -0.151062, -0.994019,0.005615, 0.139832, -0.072510
748, 7470000.000000,0.438110, 0.985992, -0.604340,-0.450348, -0.151062, -0.994019,0.005615, 0.139832, -0.072510
749, 7480000.000000,0.438110, 0.985992, -0.604340,-0.450348, -0.151062, -0.994019,0.005615, 0.139832, -0.072510
750, 7490000.000000,0.207550, 0.854584, -0.349701,-0.450348, -0.088562, -0.789246,0.003845, 0.138794, -0.060059
751, 7500000.000000,0.207550, 0.854584, -0.349701,-0.248505, -0.091156, -0.789246,0.003845, 0.138794, -0.060059
752, 7510000.000000,0.052673, 0.761627, -0.427826,-0.248505, -0.091156, -0.789246,0.003845, 0.138794, -0.060059
753, 7520000.000000,0.052673, 0.761627, -0.427826,-0.248505, -0.091156, -0.789246,0.003845, 0.138794, -0.060059
754, 7530000.000000,0.058655, 0.809601, -0.532867,-0.248505, -0.091156, -0.684326,-0.005066, 0.138885, -0.062653
755, 7540000.000000,0.058655, 0.809601, -0.532867,-0.277313, -0.024261, -0.684326,-0.005066, 0.138885, -0.062653
756, 7550000.000000,0.058655, 0.809601, -0.641998,-0.277313, -0.024261, -0.684326,-0.005066, 0.138885, -0.062653
757, 7560000.000000,0.147827, 0.831268, -0.641998,-0.277313, -0.024261, -0.684326,-0.005066, 0.138885, -0.062653
758, 7570000.000000,0.147827, 0.831268, -0.641998,-0.277313, -0.024261, -0.684326,-0.005066, 0.138885, -0.052734
759, 7580000.000000,0.210968, 0.784576, -0.722931,-0.274933, -0.137878, -0.836151,-0.009735, 0.137329, -0.052734
760, 7590000.000000,0.210968, 0.784576, -0.722931,-0.274933, -0.137878, -0.836151,-0.009735, 0.137329, -0.052734
761, 7600000.000000,0.193024, 0.657715, -0.766693,-0.274933, -0.137878, -0.836151,-0.009735, 0.137329, -0.052734
762, 7610000.000000,0.193024, 0.657715, -0.766693,-0.274933, -0.137878, -0.872803,-0.013275, 0.137115, -0.054016
763, 7620000.000000,0.106598, 0.501312, -0.762451,-0.321106, -0.285522, -0.872803,-0.013275, 0.137115, -0.054016
764, 7630000.000000,0.106598, 0.501312, -0.762451,-0.321106, -0.285522, -0.872803,-0.013275, 0.137115, -0.054016
765, 7640000.000000,-0.020081, 0.331696, -0.703705,-0.321106, -0.285522, -0.872803,-0.013275, 0.137115, -0.054016
766, 7650000.000000,-0.020081, 0.331696, -0.703705,-0.321106, -0.285522, -0.872803,-0.013275, 0.137115, -0.054016
767, 7660000.000000,-0.020081, 0.331696, -0.703705,-0.388306, -0.404144, -0.731842,-0.015564, 0.135223, -0.054596
768, 7670000.000000,-0.171753, 0.165924, -0.601288,-0.388306, -0.404144, -0.731842,-0.015564, 0.135223, -0.054596
769, 7680000.000000,-0.171753, 0.165924, -0.601288,-0.388306, -0.404144, -0.731842,-0.015564, 0.135223, -0.054596
770, 7690000.000000,-0.316010, 0.030243, -0.481995,-0.388306, -0.404144, -0.731842,-0.015564, 0.135223, -0.054596
771, 7700000.000000,-0.316010, 0.030243, -0.481995,-0.497894, -0.384094, -0.617432,-0.016357, 0.129669, -0.054688
772, 7710000.000000,-0.390411, -0.093170, -0.363281,-0.497894, -0.384094, -0.617432,-0.016357, 0.129669, -0.054688
773, 7720000.000000,-0.390411, -0.093170, -0.363281,-0.497894, -0.384094, -0.617432,-0.016357, 0.129669, -0.054688
774, 7730000.000000,-0.335083, -0.261078, -0.264465,-0.497894, -0.384094, -0.617432,-0.016357, 0.129669, -0.054688
775, 7740000.000000,-0.335083, -0.261078, -0.264465,-0.488281, -0.281860, -0.649597,-0.011169, 0.126190, -0.079803
776, 7750000.000000,-0.225708, -0.516113, -0.206299,-0.488281, -0.281860, -0.649597,-0.011169, 0.126190, -0.079803
777, 7760000.000000,-0.219940, -0.516113, -0.206299,-0.488281, -0.281860, -0.649597,-0.011169, 0.126190, -0.079803
778, 7770000.000000,-0.219940, -0.516113, -0.149506,-0.488281, -0.281860, -0.649597,-0.011169, 0.126190, -0.079803
779, 7780000.000000,-0.079315, -0.820374, -0.149506,-0.364105, -0.305145, -0.668091,-0.001984, 0.121460, -0.085419
780, 7790000.000000,-0.079315, -0.820374, -0.149506,-0.364105, -0.305145, -0.668091,-0.001984, 0.121460, -0.085419
781, 7800000.000000,0.048431, -0.990265, -0.070770,-0.364105, -0.305145, -0.668091,-0.001984, 0.121460, -0.085419
782, 7810000.000000,0.107574, -1.000000, 0.019409,-0.039642, -0.274170, -0.584351,0.017151, 0.118561, -0.098053
783, 7820000.000000,0.107574, -1.000000, 0.019409,-0.039642, -0.274170, -0.584351,0.017151, 0.118561, -0.098053
784, 7830000.000000,0.154053, -1.000000, 0.102448,-0.039642, -0.274170, -0.584351,0.017151, 0.118561, -0.098053
785, 7840000.000000,0.154053, -1.000000, 0.102448,-0.039642, -0.142120, -0.384216,0.042297, 0.105896, -0.101837
786, 7850000.000000,0.216217, -1.000000, 0.148712,0.208252, -0.142120, -0.384216,0.042297, 0.105896, -0.101837
787, 7860000.000000,0.216217, -1.000000, 0.148712,0.208252, -0.142120, -0.384216,0.042297, 0.105896, -0.101837
788, 7870000.000000,0.250702, -1.000000, 0.167877,0.208252, -0.142120, -0.384216,0.042297, 0.105896, -0.101837
789, 7880000.000000,0.250702, -1.000000, 0.167877,0.208252, -0.142120, -0.402130,0.060120, 0.090088, -0.102234
790, 7890000.000000,0.265808, -1.000000, 0.198029,0.293335, -0.171356, -0.402130,0.060120, 0.090088, -0.102234
791, 7900000.000000,0.265808, -1.000000, 0.198029,0.293335, -0.171356, -0.402130,0.060120, 0.090088, -0.102234
792, 7910000.000000,0.265808, -1.000000, 0.244324,0.293335, -0.171356, -0.402130,0.060120, 0.090088, -0.102234
793, 7920000.000000,0.286133, -1.000000, 0.244324,0.293335, -0.171356, -0.605255,0.078613, 0.083466, -0.111908
794, 7930000.000000,0.286133, -1.000000, 0.244324,0.390747, -0.150024, -0.606812,0.078613, 0.083466, -0.111908
795, 7940000.000000,0.334625, -1.000000, 0.292786,0.390747, -0.150024, -0.606812,0.078613, 0.083466, -0.111908
796, 7950000.000000,0.334625, -1.000000, 0.292786,0.390747, -0.150024, -0.606812,0.078613, 0.083466, -0.111908
797, 7960000.000000,0.403381, -1.000000, 0.350128,0.390747, -0.150024, -0.606812,0.078613, 0.083466, -0.104095
798, 7970000.000000,0.403381, -1.000000, 0.350128,0.461914, -0.154510, -0.676514,0.096527, 0.079895, -0.108887
799, 7980000.000000,0.465302, -1.000000, 0.422272,0.461914, -0.154510, -0.676514,0.096527, 0.079895, -0.108887
800, 7990000.000000,0.465302, -1.000000, 0.422272,0.461914, -0.154510, -0.676514,0.096527, 0.079895, -0.108887
801, 8000000.000000,0.523132, -1.000000, 0.489838,0.461914, -0.154510, -0.676514,0.119965, 0.079773, -0.107574
802, 8010000.000000,0.523132, -1.000000, 0.489838,0.511383, -0.035980, -0.656464,0.122772, 0.079773, -0.107574
803, 8020000.000000,0.601257, -1.000000, 0.534821,0.511383, -0.035980, -0.656464,0.122772, 0.079773, -0.107574
804, 8030000.000000,0.598450, -1.000000, 0.534821,0.511383, -0.035980, -0.656464,0.122772, 0.079773, -0.107574
805, 8040000.000000,0.598450, -1.000000, 0.534821,0.511383, -0.035980, -0.656464,0.122772, 0.071960, -0.091522
806, 8050000.000000,0.662476, -1.000000, 0.610382,0.638336, -0.052490, -0.800232,0.149048, 0.075836, -0.091522
807, 8060000.000000,0.662476, -1.000000, 0.610382,0.638336, -0.052490, -0.800232,0.149048, 0.075836, -0.091522
808, 8070000.000000,0.642426, -1.000000, 0.621124,0.638336, -0.052490, -0.800232,0.149048, 0.075836, -0.091522
809, 8080000.000000,0.642426, -1.000000, 0.621124,0.638336, -0.052490, -0.800232,0.149048, 0.074707, -0.062439
810, 8090000.000000,0.525299, -1.000000, 0.677917,0.821106, -0.163910, -0.866241,0.160309, 0.074707, -0.062439
811, 8100000.000000,0.525299, -1.000000, 0.677917,0.821106, -0.163910, -0.866241,0.160309, 0.074707, -0.062439
812, 8110000.000000,0.344421, -1.000000, 0.729614,0.821106, -0.163910, -0.866241,0.160309, 0.074707, -0.062439
813, 8120000.000000,0.344421, -1.000000, 0.729614,0.821106, -0.163910, -0.866241,0.160309, 0.074707, -0.062439
814, 8130000.000000,0.344421, -1.000000, 0.620239,0.999756, 0.069672, -0.766693,0.166931, 0.075989, -0.049072
815, 8140000.000000,0.244080, -1.000000, 0.624359,0.999756, 0.069672, -0.766693,0.166931, 0.075989, -0.049072
816, 8150000.000000,0.244080, -1.000000, 0.624359,0.999756, 0.069672, -0.766693,0.166931, 0.075989, -0.049072
817, 8160000.000000,0.291779, -1.000000, 0.460205,0.999756, 0.069672, -0.766693,0.166931, 0.075989, -0.049072
818, 8170000.000000,0.291779, -1.000000, 0.460205,0.999756, 0.020782, -0.357178,0.169281, 0.084839, -0.040833
819, 8180000.000000,0.308899, -0.981964, 0.301605,0.999756, 0.020782, -0.357178,0.169281, 0.084839, -0.040833
820, 8190000.000000,0.308899, -0.981964, 0.301605,0.999756, 0.020782, -0.357178,0.169281, 0.084839, -0.040833
821, 8200000.000000,0.308899, -0.981964, 0.265656,0.999756, 0.020782, -0.357178,0.169281, 0.084839, -0.040833
822, 8210000.000000,0.132019, -0.757782, 0.265656,0.999756, 0.026581, 0.255707,0.171448, 0.091553, -0.026917
823, 8220000.000000,0.044617, -0.350525, 0.116791,0.999756, 0.026581, 0.255707,0.171448, 0.091553, -0.026917
824, 8230000.000000,0.044617, -0.350525, 0.116791,0.999756, 0.026581, 0.255707,0.171448, 0.091553, -0.026917
825, 8240000.000000,0.234833, 0.016510, -0.034546,0.999756, -0.059235, 0.170837,0.176971, 0.096039, -0.020172
826, 8250000.000000,0.234833, 0.016510, -0.073608,0.999756, -0.059235, 0.170837,0.176971, 0.096039, -0.020172
827, 8260000.000000,0.474487, 0.279755, -0.076752,0.999756, -0.059235, 0.170837,0.176971, 0.096039, -0.020172
828, 8270000.000000,0.474487, 0.279755, -0.076752,0.999756, -0.059235, 0.170837,0.176971, 0.096039, -0.020172
829, 8280000.000000,0.472443, 0.482147, -0.017334,0.834595, -0.090332, 0.136841,0.182007, 0.102570, -0.028778
830, 8290000.000000,0.472443, 0.482147, -0.017334,0.834595, -0.090332, 0.136841,0.182007, 0.102570, -0.028778
831, 8300000.000000,0.405853, 0.713043, 0.075287,0.834595, -0.090332, 0.136841,0.182007, 0.102570, -0.028778
832, 8310000.000000,0.405853, 0.713043, 0.075287,0.834595, -0.090332, 0.136841,0.182007, 0.102570, -0.028778
833, 8320000.000000,0.568878, 0.929840, -0.008789,0.467865, 0.674347, 0.879730,0.182495, 0.107269, -0.050262
834, 8330000.000000,0.568878, 0.929840, -0.008789,0.467865, 0.674347, 0.879730,0.182495, 0.107269, -0.050262
835, 8340000.000000,0.568878, 0.929840, -0.008789,0.467865, 0.674347, 0.879730,0.182495, 0.107269, -0.050262
836, 8350000.000000,0.292145, 0.989258, -0.695343,0.467865, 0.674347, 0.879730,0.182495, 0.107269, -0.050262
837, 8360000.000000,0.292145, 0.989258, -0.695343,0.585815, -0.734100, -0.975037,0.162994, 0.108887, -0.074310
838, 8370000.000000,-0.943237, 0.989258, -0.772522,0.585815, -0.734100, -0.975037,0.162994, 0.108887, -0.074310
839, 8380000.000000,-0.943237, 0.989258, -0.772522,0.585815, -0.734100, -0.975037,0.162994, 0.108887, -0.074310
840, 8390000.000000,-0.948181, 0.786865, 0.074860,0.585815, -0.734100, -0.975037,0.162994, 0.108887, -0.074310
841, 8400000.000000,-0.948181, 0.786865, 0.074860,-0.088257, 0.989746, -0.097992,0.155701, 0.101135, -0.095734
842, 8410000.000000,-0.271210, 0.288818, 0.033813,-0.088257, 0.989746, -0.097992,0.155701, 0.101135, -0.095734
843, 8420000.000000,-0.271210, 0.288818, 0.033813,-0.088257, 0.989746, -0.097992,0.155701, 0.101135, -0.095734
844, 8430000.000000,-0.758850, 0.290283, -0.082642,-0.088257, 0.989746, -0.007385,0.158264, 0.094055, -0.099670
845, 8440000.000000,-0.758850, 0.290283, -0.082642,-0.073547, 0.238770, -0.007385,0.158264, 0.094055, -0.099670
846, 8450000.000000,-0.262329, 0.226471, 0.050018,-0.073547, 0.238770, -0.007385,0.158264, 0.094055, -0.099670
847, 8460000.000000,-0.262329, 0.226471, 0.050018,-0.073547, 0.238770, -0.007385,0.158264, 0.094055, -0.099670
848, 8470000.000000,-0.157837, -0.002991, -0.003998,-0.073547, 0.238770, -0.007385,0.158264, 0.096283, -0.098999
849, 8480000.000000,-0.157837, -0.002991, -0.003998,-0.020447, 0.093140, -0.234039,0.157501, 0.096283, -0.098999
850, 8490000.000000,-0.076172, 0.019653, -0.082794,-0.020447, 0.093140, -0.234039,0.157501, 0.096283, -0.098999
851, 8500000.000000,-0.076172, 0.019653, -0.082794,-0.020447, 0.093140, -0.234039,0.157501, 0.096283, -0.098999
852, 8510000.000000,-0.076172, 0.019653, -0.082794,-0.020447, 0.093140, -0.234039,0.157501, 0.096283, -0.098999
853, 8520000.000000,-0.066711, -0.003540, -0.042236,0.011566, 0.041016, -0.258026,0.156921, 0.091187, -0.095215
854, 8530000.000000,-0.066711, -0.003540, -0.042236,0.011566, 0.041016, -0.258026,0.156921, 0.091187, -0.095215
855, 8540000.000000,-0.049988, -0.008240, 0.005310,0.011566, 0.041016, -0.258026,0.156921, 0.091187, -0.095215
856, 8550000.000000,-0.049988, -0.008240, 0.005310,0.011566, 0.041016, -0.258026,0.156921, 0.091187, -0.095215
857, 8560000.000000,-0.037933, 0.003906, -0.023926,-0.084930, -0.041260, -0.223145,0.160645, 0.091431, -0.103271
858, 8570000.000000,-0.037933, 0.003906, -0.023926,-0.084930, -0.041260, -0.223145,0.160645, 0.091431, -0.103271
859, 8580000.000000,0.008942, 0.134491, 0.011841,-0.084930, -0.041260, -0.223145,0.160645, 0.091431, -0.103271
860, 8590000.000000,0.013000, 0.134491, 0.011841,-0.084930, -0.041260, -0.223145,0.160645, 0.091431, -0.103271
861, 8600000.000000,0.013000, 0.134491, 0.019653,0.002991, -0.065399, -0.281921,0.154175, 0.091766, -0.101135
862, 8610000.000000,0.023010, 0.139587, 0.021759,0.002991, -0.065399, -0.281921,0.154175, 0.091766, -0.101135
863, 8620000.000000,0.027466, 0.172699, 0.066589,0.002991, -0.065399, -0.281921,0.154175, 0.091766, -0.101135
864, 8630000.000000,0.027466, 0.172699, 0.066589,0.002991, -0.065399, -0.281921,0.154175, 0.095947, -0.097321
865, 8640000.000000,0.027466, 0.172699, 0.066589,0.000458, -0.025330, -0.251495,0.153442, 0.095947, -0.097321
866, 8650000.000000,0.047485, 0.302155, 0.052032,0.000458, -0.025330, -0.251495,0.153442, 0.095947, -0.097321
867, 8660000.000000,0.047485, 0.302155, 0.052032,0.000458, -0.025330, -0.251495,0.153442, 0.095947, -0.097321
868, 8670000.000000,0.045898, 0.428497, 0.027100,0.000458, -0.025330, -0.251495,0.153442, 0.095947, -0.097321
869, 8680000.000000,0.045898, 0.428497, 0.027100,-0.252960, 0.011597, -0.306274,0.148407, 0.094482, -0.116730
870, 8690000.000000,0.060791, 0.795654, -0.019135,-0.252960, 0.011597, -0.306274,0.148407, 0.094482, -0.116730
871, 8700000.000000,0.060791, 0.795654, -0.019135,-0.252960, 0.011597, -0.306274,0.148407, 0.094482, -0.116730
872, 8710000.000000,0.060791, 0.966492, -0.090454,-0.252960, 0.011597, -0.306274,0.148407, 0.094482, -0.116730
873, 8720000.000000,0.122986, 0.966492, -0.090454,-0.323486, 0.324524, -0.841705,0.126770, 0.097290, -0.123535
874, 8730000.000000,0.122986, 0.966492, -0.090454,-0.323486, 0.324524, -0.841705,0.126770, 0.097290, -0.123535
875, 8740000.000000,0.579529, 0.989258, -0.192810,-0.323486, 0.324524, -0.841705,0.126770, 0.097290, -0.123535
876, 8750000.000000,0.579529, 0.989258, -0.192810,-0.323486, 0.324524, -0.841705,0.126770, 0.097290, -0.123535
877, 8760000.000000,0.801910, 0.989258, -0.355255,-0.220306, 0.038727, -0.448639,0.082977, 0.109985, -0.137817
878, 8770000.000000,0.801910, 0.989258, -0.355255,-0.220306, 0.038727, -0.448639,0.082977, 0.109985, -0.137817
879, 8780000.000000,0.822784, 0.989258, -0.505066,-0.220306, 0.038727, -0.448639,0.082977, 0.109985, -0.137817
880, 8790000.000000,0.822784, 0.989258, -0.505066,-0.220306, 0.038727, -0.448639,0.082977, 0.109985, -0.137817
881, 8800000.000000,0.675415, 0.989258, -0.779816,0.733276, -0.095001, 0.317413,0.030060, 0.113556, -0.132111
882, 8810000.000000,0.675415, 0.989258, -0.779816,0.733276, -0.095001, 0.317413,0.030060, 0.113556, -0.132111
883, 8820000.000000,0.316864, 0.989258, -0.669403,0.733276, -0.095001, 0.317413,0.030060, 0.113556, -0.132111
884, 8830000.000000,0.316864, 0.989258, -0.669403,0.733276, -0.252777, -0.999756,0.020050, 0.111298, -0.122559
885, 8840000.000000,0.250824, 0.989166, -0.564362,0.078735, -0.252777, -0.999756,0.020050, 0.111298, -0.122559
886, 8850000.000000,0.250824, 0.989166, -0.564362,0.078735, -0.252777, -0.999756,0.020050, 0.111298, -0.122559
887, 8860000.000000,0.401978, 0.875763, -0.548157,0.078735, -0.252777, -0.999756,0.020050, 0.111298, -0.122559
888, 8870000.000000,0.401978, 0.875763, -0.548157,0.078735, -0.252777, -0.999756,0.020050, 0.112396, -0.111847
889, 8880000.000000,0.206665, 0.503082, -0.557983,-0.116180, -0.276428, -0.986298,0.018829, 0.112396, -0.111847
890, 8890000.000000,0.204620, 0.503082, -0.557983,-0.116180, -0.276428, -0.986298,0.018829, 0.112396, -0.111847
891, 8900000.000000,0.204620, 0.503082, -0.557983,-0.116180, -0.276428, -0.986298,0.018829, 0.112396, -0.111847
892, 8910000.000000,0.023895, 0.373840, -0.572479,-0.116180, -0.276428, -0.986298,0.018829, 0.107086, -0.117035
893, 8920000.000000,0.023895, 0.373840, -0.572479,-0.206116, -0.126190, -0.595551,0.024750, 0.107086, -0.117035
894, 8930000.000000,-0.064728, 0.461761, -0.602966,-0.206116, -0.126190, -0.595551,0.024750, 0.107086, -0.117035
895, 8940000.000000,-0.064728, 0.461761, -0.602966,-0.206116, -0.126190, -0.595551,0.024750, 0.107086, -0.117035
896, 8950000.000000,-0.036224, 0.523682, -0.630737,-0.206116, -0.126190, -0.626801,0.024750, 0.105194, -0.097656
897, 8960000.000000,-0.036224, 0.523682, -0.630737,-0.293060, -0.145691, -0.627502,0.027771, 0.105194, -0.097656
898, 8970000.000000,0.085052, 0.540833, -0.653625,-0.293060, -0.145691, -0.627502,0.027771, 0.105194, -0.097656
899, 8980000.000000,0.085052, 0.540833, -0.653625,-0.293060, -0.145691, -0.627502,0.027771, 0.105194, -0.097656
900, 8990000.000000,0.085052, 0.540833, -0.642456,-0.293060, -0.145691, -0.627502,0.027771, 0.105194, -0.101837
901, 9000000.000000,0.098450, 0.446289, -0.642456,-0.282043, -0.322693, -0.817169,0.034882, 0.101959, -0.101837
902, 9010000.000000,0.098450, 0.446289, -0.642456,-0.282043, -0.322693, -0.817169,0.034882, 0.101959, -0.101837
903, 9020000.000000,0.024933, 0.275208, -0.570679,-0.282043, -0.322693, -0.817169,0.034882, 0.101959, -0.101837
904, 9030000.000000,0.024933, 0.275208, -0.570679,-0.282043, -0.322693, -0.817169,0.034882, 0.101959, -0.086212
905, 9040000.000000,-0.098785, 0.090912, -0.451050,-0.292725, -0.424377, -0.715942,0.043396, 0.097656, -0.091583
906, 9050000.000000,-0.098785, 0.090912, -0.451050,-0.292725, -0.424377, -0.715942,0.043396, 0.097656, -0.091583
907, 9060000.000000,-0.279785, -0.079956, -0.305695,-0.292725, -0.424377, -0.715942,0.043396, 0.097656, -0.091583
908, 9070000.000000,-0.279785, -0.079956, -0.305695,-0.292725, -0.424377, -0.715942,0.043396, 0.097656, -0.091583
909, 9080000.000000,-0.279785, -0.079956, -0.135406,-0.346527, -0.382751, -0.549408,0.051392, 0.091217, -0.079010
910, 9090000.000000,-0.475311, -0.247620, -0.135406,-0.346527, -0.382751, -0.549408,0.051392, 0.091217, -0.079010
911, 9100000.000000,-0.475311, -0.247620, -0.135406,-0.346527, -0.382751, -0.549408,0.051392, 0.091217, -0.079010
912, 9110000.000000,-0.386993, -0.392273, -0.029022,-0.346527, -0.382751, -0.549408,0.051392, 0.091217, -0.079010
913, 9120000.000000,-0.386993, -0.392273, -0.029022,-0.334778, -0.246674, -0.564636,0.063080, 0.084106, -0.070190
914, 9130000.000000,-0.210205, -0.572693, 0.078064,-0.334778, -0.246674, -0.564636,0.063080, 0.084106, -0.070190
915, 9140000.000000,-0.210205, -0.572693, 0.078064,-0.334778, -0.246674, -0.564636,0.063080, 0.084106, -0.070190
916, 9150000.000000,-0.210205, -0.572693, 0.171814,-0.334778, -0.246674, -0.564636,0.063080, 0.084106, -0.070190
917, 9160000.000000,-0.069031, -0.831055, 0.164276,-0.334778, -0.246674, -0.549011,0.069031, 0.085846, -0.058624
918, 9170000.000000,-0.069031, -0.831055, 0.164276,-0.189575, -0.220001, -0.549347,0.069031, 0.085846, -0.058624
919, 9180000.000000,0.030304, -0.990845, 0.242859,-0.189575, -0.220001, -0.549347,0.069031, 0.085846, -0.058624
920, 9190000.000000,0.030304, -0.990845, 0.242859,-0.189575, -0.220001, -0.549347,0.069031, 0.085846, -0.058624
921, 9200000.000000,0.077209, -1.000000, 0.315430,-0.189575, -0.220001, -0.549347,0.069031, 0.085846, -0.058624
922, 9210000.000000,0.077209, -1.000000, 0.315430,0.041077, -0.155212, -0.402466,0.080658, 0.090179, -0.058807
923, 9220000.000000,0.077209, -1.000000, 0.315430,0.041077, -0.155212, -0.402466,0.080658, 0.090179, -0.058807
924, 9230000.000000,0.079254, -1.000000, 0.358002,0.041077, -0.155212, -0.402466,0.080658, 0.090179, -0.058807
925, 9240000.000000,0.079254, -1.000000, 0.376617,0.041077, -0.155212, -0.402466,0.080658, 0.090179, -0.048950
926, 9250000.000000,0.078278, -1.000000, 0.376617,0.166412, -0.168213, -0.314209,0.095947, 0.092834, -0.048950
927, 9260000.000000,0.078278, -1.000000, 0.376617,0.166412, -0.168213, -0.314209,0.095947, 0.092834, -0.048950
928, 9270000.000000,0.090332, -1.000000, 0.393433,0.166412, -0.168213, -0.314209,0.095947, 0.092834, -0.048950
929, 9280000.000000,0.090332, -1.000000, 0.393433,0.166412, -0.168213, -0.314209,0.095947, 0.092834, -0.048950
930, 9290000.000000,0.126343, -1.000000, 0.411743,0.263153, -0.124573, -0.422638,0.099579, 0.089539, -0.023132
931, 9300000.000000,0.126343, -1.000000, 0.411743,0.263153, -0.124573, -0.422638,0.099579, 0.089539, -0.023132
932, 9310000.000000,0.197388, -1.000000, 0.405090,0.263153, -0.124573, -0.422638,0.099579, 0.089539, -0.023132
933, 9320000.000000,0.197388, -1.000000, 0.405090,0.263153, -0.124573, -0.422638,0.099579, 0.089539, 0.015015
934, 9330000.000000,0.295410, -1.000000, 0.348816,0.350311, 0.036652, -0.420349,0.106567, 0.078125, 0.015015
935, 9340000.000000,0.295410, -1.000000, 0.348816,0.350311, 0.036652, -0.420349,0.106567, 0.078125, 0.015015
936, 9350000.000000,0.378632, -1.000000, 0.268402,0.350311, 0.036652, -0.420349,0.106567, 0.078125, 0.015015
937, 9360000.000000,0.378632, -1.000000, 0.268402,0.350311, 0.036652, -0.475037,0.067932, 0.070648, 0.028259
938, 9370000.000000,0.378632, -1.000000, 0.207001,0.372406, -0.006409, -0.471558,0.067932, 0.070648, 0.028259
939, 9380000.000000,0.407349, -1.000000, 0.207001,0.372406, -0.006409, -0.471558,0.067932, 0.070648, 0.028259
940, 9390000.000000,0.407349, -1.000000, 0.207001,0.372406, -0.006409, -0.471558,0.067932, 0.070648, 0.028259
941, 9400000.000000,0.400818, -1.000000, 0.182281,0.372406, -0.006409, -0.471558,0.067932, 0.070648, -0.032440
942, 9410000.000000,0.400818, -1.000000, 0.182281,0.346527, -0.022766, -0.508148,0.019806, 0.085419, -0.032440
943, 9420000.000000,0.428284, -1.000000, 0.185089,0.346527, -0.022766, -0.508148,0.019806, 0.085419, -0.032440
944, 9430000.000000,0.428284, -1.000000, 0.185089,0.346527, -0.022766, -0.508148,0.019806, 0.085419, -0.032440
945, 9440000.000000,0.508728, -1.000000, 0.206940,0.346527, -0.022766, -0.508148,0.019806, 0.116119, -0.090942
946, 9450000.000000,0.508728, -1.000000, 0.206940,0.380615, -0.053131, -0.618835,0.031281, 0.116119, -0.090942
947, 9460000.000000,0.599426, -1.000000, 0.257385,0.380615, -0.053131, -0.618835,0.031281, 0.116119, -0.090942
948, 9470000.000000,0.599426, -1.000000, 0.257385,0.380615, -0.053131, -0.618835,0.031281, 0.116119, -0.090942
949, 9480000.000000,0.658508, -1.000000, 0.344757,0.497253, -0.256104, -0.893616,0.085663, 0.142517, -0.095917
950, 9490000.000000,0.658508, -1.000000, 0.344757,0.497253, -0.256104, -0.893616,0.085663, 0.142517, -0.095917
951, 9500000.000000,0.637421, -1.000000, 0.471039,0.497253, -0.256104, -0.893616,0.085663, 0.142517, -0.095917
952, 9510000.000000,0.637421, -1.000000, 0.471039,0.497253, -0.256104, -0.893616,0.085663, 0.142517, -0.051697
953, 9520000.000000,0.508362, -1.000000, 0.609619,0.910156, -0.255096, -0.949768,0.124237, 0.148163, -0.051697
954, 9530000.000000,0.508362, -1.000000, 0.609619,0.910156, -0.255096, -0.949768,0.124237, 0.148163, -0.051697
955, 9540000.000000,0.443634, -1.000000, 0.643494,0.910156, -0.255096, -0.949768,0.124237, 0.148163, -0.051697
956, 9550000.000000,0.443634, -1.000000, 0.643494,0.910156, -0.255096, -0.949768,0.124237, 0.148163, -0.051697
957, 9560000.000000,0.571442, -1.000000, 0.691956,0.941589, 0.061981, -0.321564,0.138519, 0.145264, -0.004822
958, 9570000.000000,0.571442, -1.000000, 0.691956,0.941589, 0.061981, -0.321564,0.138519, 0.145264, -0.004822
959, 9580000.000000,0.571442, -1.000000, 0.691956,0.941589, 0.061981, -0.321564,0.138519, 0.145264, -0.004822
960, 9590000.000000,0.547272, -0.952637, 0.510803,0.941589, 0.061981, -0.321564,0.138519, 0.145264, -0.004822
961, 9600000.000000,0.547272, -0.952637, 0.510803,0.999756, -0.001740, 0.014160,0.136475, 0.142212, 0.009979
962, 9610000.000000,0.193451, -0.614166, 0.316803,0.999756, -0.001740, 0.014160,0.136475, 0.142212, 0.009979
963, 9620000.000000,0.193451, -0.614166, 0.316803,0.999756, -0.001740, 0.014160,0.136475, 0.142212, 0.009979
964, 9630000.000000,0.033600, -0.347504, 0.156311,0.999756, -0.001740, 0.014160,0.136475, 0.142212, 0.009979
965, 9640000.000000,0.033600, -0.347504, 0.156311,0.999756, 0.255646, 0.451721,0.128235, 0.142914, 0.019287
966, 9650000.000000,0.231354, -0.095734, -0.058838,0.999756, 0.255646, 0.451721,0.128235, 0.142914, 0.019287
967, 9660000.000000,0.231354, -0.095734, -0.058838,0.999756, 0.255646, 0.451721,0.128235, 0.142914, 0.019287
968, 9670000.000000,0.231354, -0.095734, -0.058838,0.999756, 0.255646, 0.451721,0.128235, 0.142914, 0.019287
969, 9680000.000000,0.466522, 0.305573, -0.210815,0.998993, -0.199493, 0.172546,0.126587, 0.141449, 0.025848
970, 9690000.000000,0.466522, 0.305573, -0.210815,0.998993, -0.199493, 0.172546,0.126587, 0.141449, 0.025848
971, 9700000.000000,0.344421, 0.674591, -0.185486,0.998993, -0.199493, 0.172546,0.126587, 0.141449, 0.025848
972, 9710000.000000,0.344421, 0.674591, -0.185486,0.998993, -0.199493, 0.172546,0.126587, 0.141449, 0.025848
973, 9720000.000000,-0.022003, 0.982758, -0.337006,0.717743, 0.393372, 0.375244,0.119415, 0.140961, 0.007996
974, 9730000.000000,-0.022003, 0.982758, -0.337006,0.717712, 0.393372, 0.375244,0.119415, 0.140961, 0.007996
975, 9740000.000000,-0.814087, 0.989258, -0.757996,0.717712, 0.393372, 0.375244,0.119415, 0.140961, 0.007996
976, 9750000.000000,-0.814087, 0.989258, -0.757996,0.717712, 0.393372, 0.375244,0.119415, 0.140961, 0.007996
977, 9760000.000000,-0.999634, 0.989258, -0.212982,0.290588, -0.347839, -0.963867,0.121216, 0.136566, -0.012146
978, 9770000.000000,-0.999634, 0.989258, -0.212982,0.290588, -0.347839, -0.963867,0.121216, 0.136566, -0.012146
979, 9780000.000000,-0.999634, 0.989258, -0.212982,0.290588, -0.347839, -0.963867,0.121216, 0.136566, -0.012146
980, 9790000.000000,-0.791687, 0.639465, 0.217041,0.290588, -0.347839, -0.963867,0.121216, 0.136566, -0.012146
981, 9800000.000000,-0.791687, 0.639465, 0.217041,-0.498474, 0.041290, -0.116730,0.119720, 0.132935, -0.013062
982, 9810000.000000,-0.656006, 0.460266, -0.171692,-0.498840, 0.041290, -0.116730,0.119720, 0.132935, -0.013062
983, 9820000.000000,-0.656006, 0.460266, -0.171692,-0.498840, 0.041290, -0.116730,0.119720, 0.132935, -0.013062
984, 9830000.000000,-0.710114, 0.168884, 0.095551,-0.498840, 0.041290, -0.116730,0.119720, 0.132935, -0.013062
985, 9840000.000000,-0.710114, 0.168884, 0.095551,0.363525, -0.085388, -0.539551,0.118011, 0.135315, -0.019043
986, 9850000.000000,-0.226898, 0.265808, 0.077454,0.363525, -0.085388, -0.539551,0.118011, 0.135315, -0.019043
987, 9860000.000000,-0.226898, 0.265808, 0.077454,0.363525, -0.085388, -0.539551,0.118011, 0.135315, -0.019043
988, 9870000.000000,-0.138794, -0.014130, -0.062744,0.363525, -0.085388, -0.539551,0.118011, 0.135315, -0.019043
989, 9880000.000000,-0.138794, -0.014130, -0.062744,0.020966, -0.026489, -0.293121,0.119843, 0.137787, -0.023529
990, 9890000.000000,-0.084351, -0.019684, -0.039581,0.020966, -0.026489, -0.293121,0.119843, 0.137787, -0.023529
991, 9900000.000000,-0.084351, -0.019684, -0.039581,0.020966, -0.026489, -0.293121,0.119843, 0.137787, -0.023529
992, 9910000.000000,-0.084351, -0.019684, -0.039581,0.020966, -0.026489, -0.293121,0.119843, 0.137787, -0.023529
993, 9920000.000000,-0.056427, -0.000946, -0.015778,0.001282, 0.016693, -0.232239,0.114410, 0.133728, -0.023529
994, 9930000.000000,-0.056427, -0.000946, -0.015778,0.001282, 0.016693, -0.232239,0.114410, 0.133728, -0.023529
995, 9940000.000000,-0.030762, -0.026855, 0.028381,0.001282, 0.016693, -0.232239,0.114410, 0.133728, -0.023529
996, 9950000.000000,-0.030762, -0.026855, 0.028381,0.001282, 0.016693, -0.232239,0.114410, 0.133728, -0.023529
997, 9960000.000000,-0.024445, -0.054077, 0.024414,-0.084167, 0.017212, -0.196075,0.110474, 0.134094, -0.019104
998, 9970000.000000,-0.024445, -0.054077, 0.024414,-0.084167, 0.017212, -0.196075,0.110474, 0.134094, -0.019104
999, 9980000.000000,0.023773, 0.115540, -0.014740,-0.084167, 0.017212, -0.196075,0.110474, 0.134094, -0.019104
1000, 9990000.000000,0.023773, 0.115540, -0.014740,-0.084167, 0.017212, -0.196075,0.110474, 0.134094, -0.019104
1001, 10000000.000000,0.047211, 0.128387, 0.074280,-0.006042, -0.019897, -0.262390,0.118317, 0.138916, -0.030182
1002, 10010000.000000,0.051910, 0.128387, 0.074280,-0.006195, -0.019897, -0.262390,0.118317, 0.138916, -0.030182
1003, 10020000.000000,0.051910, 0.128387, 0.074280,-0.006195, -0.019897, -0.262390,0.118317, 0.138916, -0.030182
1004, 10030000.000000,0.051697, 0.165894, 0.063263,-0.006195, -0.019897, -0.262390,0.118317, 0.138916, -0.030182
1005, 10040000.000000,0.051697, 0.165894, 0.063263,-0.006195, -0.019897, -0.269775,0.121704, 0.140106, -0.028320
1006, 10050000.000000,0.071960, 0.247101, 0.084747,0.029785, -0.017517, -0.269775,0.121704, 0.140106, -0.028320
1007, 10060000.000000,0.071960, 0.247101, 0.084747,0.029785, -0.017517, -0.269775,0.121704, 0.140106, -0.028320
1008, 10070000.000000,0.063477, 0.272980, 0.059570,0.029785, -0.017517, -0.269775,0.121704, 0.140106, -0.028320
1009, 10080000.000000,0.063477, 0.272980, 0.059570,0.029785, -0.017517, -0.269775,0.121704, 0.140106, -0.028320
1010, 10090000.000000,0.063477, 0.272980, 0.059570,-0.287537, -0.026093, -0.229492,0.117401, 0.141785, -0.022064
1011, 10100000.000000,0.008209, 0.672180, -0.026794,-0.287537, -0.026093, -0.229492,0.117401, 0.141785, -0.022064
1012, 10110000.000000,0.008209, 0.672180, -0.026794,-0.287537, -0.026093, -0.229492,0.117401, 0.141785, -0.022064
1013, 10120000.000000,-0.064240, 0.956879, 0.024353,-0.287537, -0.026093, -0.229492,0.117401, 0.141785, -0.022064
1014, 10130000.000000,-0.064240, 0.956879, 0.024353,-0.218475, 0.168213, -0.732941,0.110565, 0.140411, -0.041595
1015, 10140000.000000,0.144531, 0.988403, -0.033081,-0.218475, 0.168213, -0.732941,0.110565, 0.140411, -0.041595
1016, 10150000.000000,0.521118, 0.774231, -0.526978,-0.253204, -0.352081, -0.999756,0.054230, 0.146790, -0.025452
1017, 10160000.000000,0.521118, 0.774231, -0.457642,-0.267761, -0.380737, -0.825714,0.056976, 0.147217, -0.017700
1018, 10170000.000000,0.136993, 0.424927, -0.457642,-0.267761, -0.380737, -0.825714,0.056976, 0.147217, -0.017700
1019, 10180000.000000,0.136993, 0.424927, -0.457642,-0.267761, -0.380737, -0.825714,0.056976, 0.147217, -0.017700
1020, 10190000.000000,-0.160339, 0.377045, -0.384216,-0.267761, -0.380737, -0.825714,0.056976, 0.147217, -0.017700
1021, 10200000.000000,-0.160339, 0.377045, -0.384216,-0.384949, -0.106140, -0.518188,0.055664, 0.153168, -0.021912
1022, 10210000.000000,-0.226624, 0.475342, -0.337189,-0.386322, -0.106140, -0.518188,0.055664, 0.153168, -0.021912
1023, 10220000.000000,-0.226624, 0.475342, -0.337189,-0.386322, -0.106140, -0.518188,0.055664, 0.153168, -0.021912
1024, 10230000.000000,-0.073730, 0.584991, -0.353302,-0.386322, -0.106140, -0.518188,0.055664, 0.153168, -0.021912
1025, 10240000.000000,-0.073730, 0.584991, -0.353302,-0.386322, -0.106140, -0.673615,0.055481, 0.156189, -0.015900
1026, 10250000.000000,-0.073730, 0.584991, -0.439240,-0.337006, -0.030518, -0.673615,0.055481, 0.156189, -0.015900
1027, 10260000.000000,0.089050, 0.593933, -0.443054,-0.337006, -0.030518, -0.673615,0.055481, 0.156189, -0.015900
1028, 10270000.000000,0.089050, 0.593933, -0.443054,-0.337006, -0.030518, -0.673615,0.055481, 0.156189, -0.015900
1029, 10280000.000000,0.169830, 0.481171, -0.496643,-0.337006, -0.030518, -0.673615,0.055481, 0.153442, -0.008911
1030, 10290000.000000,0.169830, 0.481171, -0.496643,-0.315063, -0.182281, -0.827271,0.055328, 0.153442, -0.008911
1031, 10300000.000000,0.128906, 0.295410, -0.507324,-0.315063, -0.182281, -0.827271,0.055328, 0.153442, -0.008911
1032, 10310000.000000,0.128906, 0.295410, -0.507324,-0.315063, -0.182281, -0.827271,0.055328, 0.153442, -0.008911
1033, 10320000.000000,0.001709, 0.097046, -0.450806,-0.315063, -0.182281, -0.827271,0.055328, 0.156677, -0.005798
1034, 10330000.000000,0.001709, 0.097046, -0.450806,-0.330200, -0.355316, -0.752502,0.058868, 0.156677, -0.005798
1035, 10340000.000000,-0.169525, -0.070709, -0.346771,-0.330200, -0.355316, -0.752502,0.058868, 0.156677, -0.005798
1036, 10350000.000000,-0.169525, -0.070709, -0.346771,-0.330200, -0.355316, -0.752502,0.058868, 0.156677, -0.005798
1037, 10360000.000000,-0.369171, -0.215881, -0.199249,-0.408325, -0.370728, -0.570770,0.060577, 0.158447, -0.014893
1038, 10370000.000000,-0.369171, -0.215881, -0.199249,-0.409027, -0.370728, -0.570770,0.060577, 0.158447, -0.014893
1039, 10380000.000000,-0.369293, -0.396576, -0.007416,-0.409027, -0.370728, -0.570770,0.060577, 0.158447, -0.014893
1040, 10390000.000000,-0.369293, -0.396576, -0.007416,-0.409027, -0.370728, -0.570770,0.060577, 0.158447, -0.014893
1041, 10400000.000000,-0.255920, -0.598480, 0.108856,-0.296021, -0.228210, -0.469452,0.062073, 0.161682, -0.008362
1042, 10410000.000000,-0.255920, -0.598480, 0.108856,-0.296021, -0.228210, -0.469452,0.062073, 0.161682, -0.008362
1043, 10420000.000000,-0.255920, -0.815552, 0.162537,-0.296021, -0.228210, -0.469452,0.062073, 0.161682, -0.008362
1044, 10430000.000000,-0.174500, -0.815552, 0.162537,-0.296021, -0.228210, -0.469452,0.062073, 0.161682, -0.008362
1045, 10440000.000000,-0.174500, -0.815552, 0.162537,-0.168701, -0.060303, -0.484985,0.071808, 0.158875, -0.005188
1046, 10450000.000000,-0.014099, -0.965210, 0.149078,-0.168701, -0.060303, -0.484985,0.071808, 0.158875, -0.005188
1047, 10460000.000000,-0.014099, -0.965210, 0.149078,-0.168701, -0.060303, -0.484985,0.071808, 0.158875, -0.005188
1048, 10470000.000000,0.139404, -1.000000, 0.122406,-0.168701, -0.060303, -0.484985,0.071808, 0.158875, -0.005188
1049, 10480000.000000,0.139404, -1.000000, 0.122406,0.022308, -0.157349, -0.575928,0.065735, 0.158783, -0.003082
1050, 10490000.000000,0.174194, -1.000000, 0.119476,0.022308, -0.157349, -0.575928,0.065735, 0.158783, -0.003082
1051, 10500000.000000,0.174194, -1.000000, 0.119476,0.022308, -0.157349, -0.575928,0.065735, 0.158783, -0.003082
1052, 10510000.000000,0.174194, -1.000000, 0.150726,0.022308, -0.157349, -0.575928,0.065735, 0.158783, -0.003082
1053, 10520000.000000,0.125977, -1.000000, 0.155609,0.162933, -0.244232, -0.445099,0.055695, 0.161163, 0.001526
1054, 10530000.000000,0.125977, -1.000000, 0.155609,0.162384, -0.244232, -0.445099,0.055695, 0.161163, 0.001526
1055, 10540000.000000,0.099792, -1.000000, 0.215332,0.162384, -0.244232, -0.445099,0.055695, 0.161163, 0.001526
1056, 10550000.000000,0.162811, -1.000000, 0.266907,0.162384, -0.244232, -0.445099,0.055695, 0.168976, -0.009644
1057, 10560000.000000,0.162811, -1.000000, 0.266907,0.281555, -0.153229, -0.453064,0.058197, 0.169586, -0.009644
1058, 10570000.000000,0.162811, -1.000000, 0.266907,0.281555, -0.153229, -0.453064,0.058197, 0.169586, -0.009644
1059, 10580000.000000,0.293091, -1.000000, 0.299591,0.281555, -0.153229, -0.453064,0.058197, 0.169586, -0.009644
1060, 10590000.000000,0.293091, -1.000000, 0.299591,0.281555, -0.153229, -0.453064,0.058197, 0.169586, -0.009644
1061, 10600000.000000,0.427917, -1.000000, 0.324982,0.342987, -0.093903, -0.535461,0.066376, 0.175903, -0.010742
1062, 10610000.000000,0.427917, -1.000000, 0.324982,0.342987, -0.093903, -0.535461,0.066376, 0.175903, -0.010742
1063, 10620000.000000,0.503052, -1.000000, 0.347046,0.342987, -0.093903, -0.535461,0.066376, 0.175903, -0.010742
1064, 10630000.000000,0.503052, -1.000000, 0.347046,0.342987, -0.093903, -0.535461,0.066376, 0.175903, -0.010742
1065, 10640000.000000,0.503052, -1.000000, 0.347046,0.413300, 0.033386, -0.608459,0.083313, 0.189514, 0.005432
1066, 10650000.000000,0.523926, -1.000000, 0.348083,0.407166, 0.033386, -0.608459,0.083313, 0.189514, 0.005432
1067, 10660000.000000,0.523926, -1.000000, 0.348083,0.407166, 0.033386, -0.608459,0.083313, 0.189514, 0.005432
1068, 10670000.000000,0.556030, -1.000000, 0.333069,0.407166, 0.033386, -0.608459,0.083313, 0.189514, 0.005432
1069, 10680000.000000,0.556030, -1.000000, 0.333069,0.469666, 0.115326, -0.638977,0.082001, 0.191345, 0.036560
1070, 10690000.000000,0.599884, -1.000000, 0.315063,0.473389, 0.115326, -0.638977,0.082001, 0.191345, 0.036560
1071, 10700000.000000,0.599884, -1.000000, 0.315063,0.473389, 0.115326, -0.638977,0.082001, 0.191345, 0.036560
1072, 10710000.000000,0.582397, -1.000000, 0.314789,0.473389, 0.115326, -0.638977,0.082001, 0.191345, 0.036560
1073, 10720000.000000,0.582397, -1.000000, 0.314789,0.473389, -0.064362, -0.731293,0.068665, 0.195709, 0.054993
1074, 10730000.000000,0.582397, -1.000000, 0.314789,0.605438, -0.066833, -0.731293,0.068665, 0.195709, 0.054993
1075, 10740000.000000,0.475739, -1.000000, 0.356598,0.605438, -0.066833, -0.731293,0.068665, 0.195709, 0.054993
