Index,Time(us), GyroX , GyroY , GyroZ ,AccX , AccY , AccZ , MagX , MagY , MagZ
1, 0.000000,-0.000519, 0.010406, -0.013641,-0.021851, -0.019653, -0.252045,0.182129, 0.000092, 0.019012
2, 10000.000000,-0.000916, 0.009979, -0.013824,-0.021851, -0.019653, -0.252045,0.182129, 0.000092, 0.019012
3, 20000.000000,-0.000916, 0.009979, -0.013824,-0.020966, -0.020874, -0.255341,0.182831, -0.002991, 0.022705
4, 30000.000000,-0.001160, 0.009277, -0.014465,-0.020966, -0.020874, -0.255341,0.182831, -0.002991, 0.022705
5, 40000.000000,-0.001160, 0.009277, -0.014465,-0.020966, -0.020874, -0.255341,0.182831, -0.002991, 0.022705
6, 50000.000000,-0.000580, 0.009491, -0.013794,-0.020966, -0.020874, -0.255341,0.182831, -0.002991, 0.022705
7, 60000.000000,-0.000580, 0.009491, -0.013794,-0.020966, -0.020874, -0.255341,0.182831, -0.002319, 0.021515
8, 70000.000000,-0.000580, 0.009491, -0.013794,-0.022156, -0.019806, -0.256958,0.184814, -0.002319, 0.021515
9, 80000.000000,0.000244, 0.010498, -0.013397,-0.022156, -0.019806, -0.256958,0.184814, -0.002319, 0.021515
10, 90000.000000,0.000244, 0.010498, -0.013397,-0.022156, -0.019806, -0.256958,0.184814, -0.002319, 0.021515
11, 100000.000000,-0.001160, 0.009277, -0.013763,-0.022156, -0.019806, -0.256958,0.184814, -0.002319, 0.021515
12, 110000.000000,-0.001160, 0.009277, -0.013763,-0.021606, -0.020172, -0.255554,0.184296, -0.001526, 0.021637
13, 120000.000000,-0.001160, 0.009277, -0.013763,-0.021606, -0.020172, -0.255554,0.184296, -0.001526, 0.021637
14, 130000.000000,-0.001709, 0.009308, -0.014862,-0.021606, -0.020172, -0.255554,0.184296, -0.001526, 0.021637
15, 140000.000000,-0.001709, 0.009308, -0.014862,-0.021606, -0.020172, -0.255554,0.184296, -0.001526, 0.021637
16, 150000.000000,-0.001221, 0.010254, -0.013641,-0.021606, -0.020172, -0.255554,0.184296, -0.001526, 0.020264
17, 160000.000000,-0.001221, 0.010254, -0.013641,-0.020569, -0.020813, -0.258972,0.187134, -0.001465, 0.020264
18, 170000.000000,-0.001221, 0.010254, -0.013641,-0.020569, -0.020813, -0.258972,0.187134, -0.001465, 0.020264
19, 180000.000000,-0.001434, 0.008667, -0.013763,-0.020569, -0.020813, -0.258972,0.187134, -0.001465, 0.020264
20, 190000.000000,-0.001434, 0.008667, -0.013763,-0.020569, -0.020813, -0.258972,0.187134, -0.001465, 0.020264
21, 200000.000000,-0.001038, 0.010498, -0.014282,-0.022614, -0.020416, -0.254883,0.182861, -0.001190, 0.024567
22, 210000.000000,-0.001038, 0.010498, -0.014282,-0.022614, -0.020416, -0.254883,0.182861, -0.001190, 0.024567
23, 220000.000000,-0.000366, 0.009949, -0.013763,-0.022614, -0.020416, -0.254883,0.182861, -0.001190, 0.024567
24, 230000.000000,-0.000366, 0.009949, -0.013763,-0.022614, -0.020416, -0.254883,0.182861, -0.001465, 0.024384
25, 240000.000000,0.000122, 0.010010, -0.014160,-0.022095, -0.021393, -0.255310,0.184326, -0.001465, 0.024384
26, 250000.000000,0.000122, 0.010010, -0.014160,-0.022095, -0.021393, -0.255310,0.184326, -0.001465, 0.024384
27, 260000.000000,-0.001038, 0.010437, -0.013977,-0.022095, -0.021393, -0.255310,0.184326, -0.001465, 0.024384
28, 270000.000000,-0.001038, 0.010437, -0.013977,-0.022095, -0.021393, -0.255310,0.184326, -0.002930, 0.023193
29, 280000.000000,-0.000305, 0.010437, -0.013824,-0.021606, -0.021301, -0.254242,0.182159, -0.002930, 0.023193
30, 290000.000000,-0.000305, 0.010437, -0.013824,-0.021606, -0.021301, -0.254242,0.182159, -0.002930, 0.023193
31, 300000.000000,-0.000305, 0.010040, -0.014679,-0.021606, -0.021301, -0.254242,0.182159, -0.002930, 0.023193
32, 310000.000000,-0.001617, 0.010040, -0.014679,-0.021606, -0.021301, -0.254242,0.182159, -0.002930, 0.024109
33, 320000.000000,-0.001617, 0.010040, -0.014679,-0.022125, -0.020203, -0.254974,0.185913, -0.001251, 0.024109
34, 330000.000000,-0.001343, 0.009094, -0.014252,-0.022125, -0.020203, -0.254974,0.185913, -0.001251, 0.024109
35, 340000.000000,-0.001343, 0.009094, -0.014252,-0.022125, -0.020203, -0.254974,0.185913, -0.001251, 0.024109
36, 350000.000000,-0.000122, 0.009460, -0.013916,-0.022125, -0.020203, -0.254974,0.185913, -0.001251, 0.024109
37, 360000.000000,-0.000122, 0.009460, -0.013916,-0.020386, -0.020172, -0.257355,0.183868, -0.001312, 0.022095
38, 370000.000000,-0.000244, 0.010437, -0.013428,-0.020386, -0.020172, -0.257355,0.183868, -0.001312, 0.022095
39, 380000.000000,-0.000244, 0.010437, -0.013428,-0.020386, -0.020172, -0.257355,0.183868, -0.001312, 0.022095
40, 390000.000000,-0.000244, 0.010345, -0.013794,-0.020386, -0.020172, -0.257355,0.183868, -0.001312, 0.022095
41, 400000.000000,-0.000153, 0.010345, -0.013794,-0.019562, -0.020874, -0.260620,0.185364, -0.003052, 0.023071
42, 410000.000000,-0.000153, 0.010345, -0.013794,-0.019562, -0.020874, -0.260620,0.185364, -0.003052, 0.023071
43, 420000.000000,-0.000214, 0.009277, -0.013763,-0.019562, -0.020874, -0.260620,0.185364, -0.003052, 0.023071
44, 430000.000000,-0.000214, 0.009277, -0.013763,-0.019562, -0.020874, -0.260620,0.185364, -0.003052, 0.023071
45, 440000.000000,-0.000519, 0.008820, -0.014862,-0.021637, -0.019897, -0.254547,0.184570, -0.002502, 0.026031
46, 450000.000000,-0.000519, 0.008820, -0.014862,-0.021637, -0.019897, -0.254547,0.184570, -0.002502, 0.026031
47, 460000.000000,-0.001984, 0.009338, -0.014893,-0.021637, -0.019897, -0.254547,0.184570, -0.002502, 0.026031
48, 470000.000000,-0.001984, 0.009338, -0.014893,-0.021637, -0.019897, -0.254547,0.184570, -0.002502, 0.026031
49, 480000.000000,-0.001251, 0.010315, -0.014374,-0.022247, -0.021179, -0.254974,0.181244, -0.001343, 0.020416
50, 490000.000000,-0.001251, 0.010315, -0.014374,-0.022247, -0.021179, -0.254974,0.181244, -0.001343, 0.020416
51, 500000.000000,-0.001160, 0.010193, -0.013123,-0.022247, -0.021179, -0.254974,0.181244, -0.001343, 0.020416
52, 510000.000000,-0.001160, 0.010193, -0.013123,-0.022247, -0.021179, -0.254974,0.181244, -0.001343, 0.020416
53, 520000.000000,-0.001160, 0.010193, -0.013123,-0.019409, -0.020111, -0.256775,0.180481, -0.000488, 0.025574
54, 530000.000000,-0.002136, 0.009338, -0.014282,-0.019409, -0.020111, -0.256775,0.180481, -0.000488, 0.025574
55, 540000.000000,-0.002136, 0.009338, -0.014282,-0.019409, -0.020111, -0.256775,0.180481, -0.000488, 0.025574
56, 550000.000000,-0.001617, 0.010071, -0.014069,-0.019409, -0.020111, -0.256775,0.180481, -0.000488, 0.025574
57, 560000.000000,-0.001617, 0.010071, -0.014069,-0.020935, -0.020691, -0.256042,0.185120, -0.001740, 0.020844
58, 570000.000000,-0.001740, 0.009369, -0.014099,-0.020935, -0.020691, -0.256042,0.185120, -0.001740, 0.020844
59, 580000.000000,-0.001740, 0.009369, -0.014099,-0.020935, -0.020691, -0.256042,0.185120, -0.001740, 0.020844
60, 590000.000000,-0.000824, 0.010101, -0.014771,-0.020935, -0.020691, -0.256042,0.185120, -0.001740, 0.020844
61, 600000.000000,-0.000824, 0.010101, -0.014771,-0.021759, -0.020416, -0.251678,0.181610, -0.003265, 0.020508
62, 610000.000000,-0.000824, 0.009430, -0.014709,-0.021759, -0.020416, -0.251678,0.181610, -0.003265, 0.020508
63, 620000.000000,-0.000458, 0.009430, -0.014709,-0.021759, -0.020416, -0.251678,0.181610, -0.003265, 0.020508
64, 630000.000000,-0.000824, 0.010284, -0.014191,-0.021759, -0.020416, -0.253143,0.184601, -0.000458, 0.023529
65, 640000.000000,-0.000824, 0.010284, -0.014191,-0.019806, -0.021027, -0.253143,0.184601, -0.000458, 0.023529
66, 650000.000000,-0.000885, 0.010071, -0.014038,-0.019806, -0.021027, -0.253143,0.184601, -0.000458, 0.023529
67, 660000.000000,-0.000885, 0.010071, -0.014038,-0.019806, -0.021027, -0.253143,0.184601, -0.000458, 0.023529
68, 670000.000000,-0.000793, 0.009583, -0.014038,-0.020020, -0.020081, -0.254608,0.176697, -0.002258, 0.025940
69, 680000.000000,-0.000793, 0.009583, -0.014038,-0.020020, -0.020081, -0.254608,0.176697, -0.002258, 0.025940
70, 690000.000000,0.000702, 0.009979, -0.014008,-0.020020, -0.020081, -0.254608,0.176697, -0.002258, 0.025940
71, 700000.000000,0.000702, 0.009979, -0.014008,-0.020020, -0.020081, -0.254608,0.176697, -0.002258, 0.025940
72, 710000.000000,0.000702, 0.009979, -0.014008,-0.020020, -0.021027, -0.255585,0.182434, -0.001068, 0.019684
73, 720000.000000,-0.000610, 0.010773, -0.013947,-0.022003, -0.021027, -0.255585,0.182434, -0.001068, 0.019684
74, 730000.000000,-0.000610, 0.010773, -0.013947,-0.022003, -0.021027, -0.255585,0.182434, -0.001068, 0.019684
75, 740000.000000,-0.000183, 0.009583, -0.013428,-0.022003, -0.021027, -0.255585,0.182434, -0.001068, 0.019684
76, 750000.000000,-0.000183, 0.009583, -0.013428,-0.022003, -0.021027, -0.255188,0.185669, -0.002258, 0.025848
77, 760000.000000,-0.000732, 0.009125, -0.014618,-0.022858, -0.020905, -0.255188,0.185669, -0.002258, 0.025848
78, 770000.000000,-0.000732, 0.009125, -0.014618,-0.022858, -0.020905, -0.255188,0.185669, -0.002258, 0.025848
79, 780000.000000,-0.000732, 0.009918, -0.014069,-0.022858, -0.020905, -0.255188,0.185669, -0.002258, 0.025848
80, 790000.000000,-0.000946, 0.009918, -0.014069,-0.022858, -0.020905, -0.255188,0.185669, -0.002258, 0.020905
81, 800000.000000,-0.000946, 0.009918, -0.014069,-0.021271, -0.020905, -0.259430,0.184692, -0.000885, 0.020905
82, 810000.000000,-0.000671, 0.010803, -0.013763,-0.021271, -0.020905, -0.259430,0.184692, -0.000885, 0.020905
83, 820000.000000,-0.000671, 0.009552, -0.014465,-0.021271, -0.020905, -0.259430,0.184692, -0.000885, 0.020905
84, 830000.000000,-0.002167, 0.009552, -0.014465,-0.021271, -0.021118, -0.253845,0.182922, -0.003632, 0.024902
85, 840000.000000,-0.002167, 0.009552, -0.014465,-0.021912, -0.021118, -0.253845,0.182922, -0.003632, 0.024902
86, 850000.000000,-0.001434, 0.010406, -0.014465,-0.021912, -0.021118, -0.253845,0.182922, -0.003632, 0.024902
87, 860000.000000,-0.001434, 0.010406, -0.014465,-0.021912, -0.021118, -0.253845,0.182922, -0.003632, 0.024902
88, 870000.000000,-0.001465, 0.010315, -0.015106,-0.021912, -0.021118, -0.259033,0.184875, -0.000641, 0.023804
89, 880000.000000,-0.001465, 0.010315, -0.015106,-0.020325, -0.020721, -0.259033,0.184875, -0.000641, 0.023804
90, 890000.000000,-0.001556, 0.010559, -0.014160,-0.020325, -0.020721, -0.259033,0.184875, -0.000641, 0.023804
91, 900000.000000,-0.001556, 0.010559, -0.014160,-0.020325, -0.020721, -0.259033,0.184875, -0.000641, 0.023804
92, 910000.000000,-0.001556, 0.010559, -0.013519,-0.020325, -0.020721, -0.259033,0.184875, -0.000214, 0.016907
93, 920000.000000,-0.001129, 0.009644, -0.013519,-0.021729, -0.021027, -0.253937,0.183868, -0.000214, 0.016907
94, 930000.000000,-0.001129, 0.009644, -0.013519,-0.021729, -0.021027, -0.253937,0.183868, -0.000214, 0.016907
95, 940000.000000,-0.000336, 0.010895, -0.012909,-0.021729, -0.021027, -0.253937,0.183868, -0.000214, 0.016907
96, 950000.000000,-0.000336, 0.010895, -0.012909,-0.021729, -0.021027, -0.253937,0.183868, -0.000214, 0.016907
97, 960000.000000,0.000519, 0.011200, -0.013611,-0.019501, -0.020538, -0.255951,0.185883, -0.000885, 0.015259
98, 970000.000000,0.000519, 0.011200, -0.013611,-0.019501, -0.020538, -0.255951,0.185883, -0.000885, 0.015259
99, 980000.000000,-0.007294, 0.009338, -0.014099,-0.019501, -0.020538, -0.255951,0.185883, -0.000885, 0.015259
100, 990000.000000,-0.001404, 0.009338, -0.014099,-0.019501, -0.020538, -0.255951,0.185883, -0.000885, 0.015259
101, 1000000.000000,-0.001404, 0.009338, -0.014099,-0.020721, -0.019745, -0.253357,0.185150, 0.000092, 0.020844
102, 1010000.000000,-0.001587, 0.009491, -0.013367,-0.020721, -0.019745, -0.253357,0.185150, 0.000092, 0.020844
103, 1020000.000000,-0.001587, 0.009491, -0.013367,-0.020721, -0.019745, -0.253357,0.185150, 0.000092, 0.020844
104, 1030000.000000,-0.000397, 0.010864, -0.013306,-0.020721, -0.020355, -0.254608,0.185577, -0.000641, 0.018860
105, 1040000.000000,-0.000977, 0.011200, -0.014069,-0.020905, -0.020355, -0.254608,0.185577, -0.000641, 0.018860
106, 1050000.000000,-0.000977, 0.011200, -0.014069,-0.020905, -0.020355, -0.254608,0.185577, -0.000641, 0.018860
107, 1060000.000000,-0.000977, 0.011200, -0.014221,-0.020905, -0.020355, -0.254608,0.185577, -0.000641, 0.018860
108, 1070000.000000,-0.001923, 0.010193, -0.014221,-0.021454, -0.021088, -0.249908,0.183807, -0.002594, 0.019592
109, 1080000.000000,-0.001038, 0.008392, -0.015015,-0.021454, -0.021088, -0.249908,0.183807, -0.002594, 0.019592
110, 1090000.000000,-0.001038, 0.008392, -0.015015,-0.021454, -0.021088, -0.249908,0.183807, -0.002594, 0.019592
111, 1100000.000000,-0.001038, 0.009430, -0.014679,-0.021454, -0.021088, -0.249908,0.183807, -0.002594, 0.019592
112, 1110000.000000,-0.001465, 0.009430, -0.014679,-0.020966, -0.020599, -0.257874,0.182281, 0.001343, 0.018066
113, 1120000.000000,-0.001465, 0.009430, -0.014679,-0.020966, -0.020599, -0.257874,0.182281, 0.001343, 0.018066
114, 1130000.000000,-0.002472, 0.010010, -0.015015,-0.020966, -0.020599, -0.257874,0.182281, 0.001343, 0.018066
115, 1140000.000000,-0.002472, 0.010010, -0.015015,-0.020966, -0.020599, -0.257874,0.182281, 0.001343, 0.018066
116, 1150000.000000,-0.001709, 0.010590, -0.014343,-0.020966, -0.020569, -0.256744,0.184540, -0.001709, 0.028412
117, 1160000.000000,-0.001709, 0.010590, -0.014343,-0.021606, -0.020569, -0.256744,0.184540, -0.001709, 0.028412
118, 1170000.000000,-0.001709, 0.010590, -0.014343,-0.021606, -0.020569, -0.256744,0.184540, -0.001709, 0.028412
119, 1180000.000000,-0.000336, 0.009796, -0.014832,-0.021606, -0.020569, -0.256744,0.184540, -0.001709, 0.028412
120, 1190000.000000,-0.000336, 0.009796, -0.014832,-0.021606, -0.020569, -0.256744,0.184540, -0.001709, 0.028412
121, 1200000.000000,-0.001404, 0.009583, -0.014526,-0.019836, -0.019318, -0.255219,0.182739, -0.000580, 0.020477
122, 1210000.000000,-0.001404, 0.009583, -0.014526,-0.019836, -0.019318, -0.255219,0.182739, -0.000580, 0.020477
123, 1220000.000000,-0.001190, 0.008850, -0.015289,-0.019836, -0.019318, -0.255219,0.182739, -0.000580, 0.020477
124, 1230000.000000,-0.001190, 0.008850, -0.015289,-0.019836, -0.019318, -0.255219,0.182739, -0.000580, 0.019867
125, 1240000.000000,-0.001099, 0.008911, -0.014160,-0.020752, -0.020752, -0.251587,0.182495, -0.001007, 0.019867
126, 1250000.000000,-0.001099, 0.008911, -0.014160,-0.020752, -0.020752, -0.251587,0.182495, -0.001007, 0.019867
127, 1260000.000000,-0.001099, 0.008911, -0.014160,-0.020752, -0.020752, -0.251587,0.182495, -0.001007, 0.019867
128, 1270000.000000,0.000427, 0.009979, -0.014465,-0.020752, -0.020752, -0.251587,0.182495, -0.001007, 0.019867
129, 1280000.000000,0.000427, 0.009979, -0.014465,-0.021881, -0.020081, -0.257874,0.180756, -0.000824, 0.021393
130, 1290000.000000,-0.000763, 0.009674, -0.015076,-0.021881, -0.020081, -0.257874,0.180756, -0.000824, 0.021393
131, 1300000.000000,-0.000763, 0.009674, -0.015076,-0.021881, -0.020081, -0.257874,0.180756, -0.000824, 0.021393
132, 1310000.000000,-0.000763, 0.009674, -0.015076,-0.021881, -0.020081, -0.257874,0.180756, -0.000824, 0.021393
133, 1320000.000000,-0.001617, 0.008972, -0.014496,-0.021881, -0.020081, -0.257874,0.180756, -0.000824, 0.021851
134, 1330000.000000,-0.001617, 0.008972, -0.014496,-0.021973, -0.020508, -0.253510,0.180054, -0.000916, 0.021851
135, 1340000.000000,-0.000824, 0.009430, -0.013702,-0.021973, -0.020508, -0.253510,0.180054, -0.000916, 0.021851
136, 1350000.000000,-0.000824, 0.009430, -0.013702,-0.021973, -0.020508, -0.253510,0.180054, -0.000916, 0.021851
137, 1360000.000000,-0.000824, 0.009430, -0.013702,-0.021973, -0.020508, -0.253510,0.180054, -0.000916, 0.021851
138, 1370000.000000,0.000000, 0.009766, -0.014679,-0.022339, -0.020569, -0.256165,0.181702, -0.000031, 0.024811
139, 1380000.000000,0.000000, 0.009766, -0.014679,-0.022339, -0.020569, -0.256165,0.181702, -0.000031, 0.024811
140, 1390000.000000,-0.000885, 0.009552, -0.014191,-0.022339, -0.020569, -0.256165,0.181702, -0.000031, 0.024811
141, 1400000.000000,-0.000885, 0.009552, -0.014191,-0.022339, -0.020569, -0.256165,0.181702, -0.000031, 0.024811
142, 1410000.000000,-0.000885, 0.009552, -0.013824,-0.022339, -0.020569, -0.256165,0.181702, -0.000031, 0.016815
143, 1420000.000000,-0.000732, 0.008850, -0.013824,-0.021820, -0.021240, -0.254547,0.184235, -0.001587, 0.016815
144, 1430000.000000,-0.000732, 0.008850, -0.013824,-0.021820, -0.021240, -0.254547,0.184235, -0.001587, 0.016815
145, 1440000.000000,-0.001495, 0.008148, -0.013245,-0.021820, -0.021240, -0.254547,0.184235, -0.001587, 0.016815
146, 1450000.000000,-0.001495, 0.008148, -0.013245,-0.021820, -0.021240, -0.254547,0.184235, -0.001587, 0.016815
147, 1460000.000000,-0.000488, 0.009674, -0.013947,-0.021057, -0.020477, -0.256012,0.182617, -0.002869, 0.014008
148, 1470000.000000,-0.000488, 0.009674, -0.013947,-0.021057, -0.020477, -0.256012,0.182617, -0.002869, 0.014008
149, 1480000.000000,-0.000488, 0.009674, -0.013916,-0.021057, -0.020477, -0.256012,0.182617, -0.002869, 0.014008
150, 1490000.000000,-0.000580, 0.009583, -0.013916,-0.021057, -0.020477, -0.256012,0.182617, -0.002869, 0.014008
151, 1500000.000000,-0.000580, 0.009583, -0.013916,-0.021057, -0.020905, -0.256439,0.184204, -0.000671, 0.022369
152, 1510000.000000,-0.001801, 0.010010, -0.013184,-0.019958, -0.020905, -0.256439,0.184204, -0.000671, 0.022369
153, 1520000.000000,-0.001801, 0.010010, -0.013184,-0.019958, -0.020905, -0.256439,0.184204, -0.000671, 0.022369
154, 1530000.000000,-0.001801, 0.011078, -0.013031,-0.019958, -0.020905, -0.256439,0.184204, -0.000671, 0.022369
155, 1540000.000000,-0.001343, 0.011078, -0.013031,-0.019958, -0.020905, -0.256439,0.184204, -0.000671, 0.022369
156, 1550000.000000,-0.001343, 0.011078, -0.013031,-0.021088, -0.020935, -0.254120,0.182892, 0.000732, 0.026337
157, 1560000.000000,-0.000641, 0.012054, -0.013824,-0.021088, -0.020935, -0.254120,0.182892, 0.000732, 0.026337
158, 1570000.000000,-0.000641, 0.012054, -0.013824,-0.021088, -0.020935, -0.254120,0.182892, 0.000732, 0.026337
159, 1580000.000000,-0.000244, 0.010132, -0.014404,-0.021088, -0.020935, -0.254120,0.182892, 0.000732, 0.026337
160, 1590000.000000,-0.000244, 0.010132, -0.014404,-0.021088, -0.020538, -0.258209,0.183319, -0.001129, 0.024872
161, 1600000.000000,-0.000244, 0.010132, -0.014404,-0.019562, -0.020538, -0.258209,0.183319, -0.001129, 0.024872
162, 1610000.000000,-0.000793, 0.010376, -0.013702,-0.019562, -0.020538, -0.258209,0.183319, -0.001129, 0.024872
163, 1620000.000000,-0.000793, 0.010376, -0.013702,-0.019562, -0.020538, -0.258209,0.183319, -0.001129, 0.024872
164, 1630000.000000,-0.001312, 0.010681, -0.013916,-0.019562, -0.020538, -0.258209,0.183319, -0.001129, 0.024872
165, 1640000.000000,-0.001312, 0.010681, -0.013916,-0.022217, -0.019867, -0.255096,0.185486, -0.001678, 0.020355
166, 1650000.000000,-0.001312, 0.010681, -0.013916,-0.022217, -0.019867, -0.255096,0.185486, -0.001678, 0.020355
167, 1660000.000000,-0.001068, 0.010345, -0.012878,-0.022217, -0.019867, -0.255096,0.185486, -0.001678, 0.020355
168, 1670000.000000,-0.001404, 0.010162, -0.013580,-0.022217, -0.019867, -0.255096,0.182770, -0.002075, 0.023529
169, 1680000.000000,-0.001404, 0.010162, -0.013580,-0.019897, -0.020416, -0.255859,0.182770, -0.002075, 0.023529
170, 1690000.000000,-0.001740, 0.009613, -0.014496,-0.019897, -0.020416, -0.255859,0.182770, -0.002075, 0.023529
171, 1700000.000000,-0.001740, 0.009613, -0.014496,-0.019897, -0.020416, -0.255859,0.182770, -0.002075, 0.023529
172, 1710000.000000,-0.001740, 0.009613, -0.014496,-0.019897, -0.020416, -0.255859,0.176758, -0.002197, 0.025360
173, 1720000.000000,-0.002167, 0.009613, -0.015564,-0.022095, -0.020477, -0.254486,0.176758, -0.002197, 0.025360
174, 1730000.000000,-0.002167, 0.009613, -0.023376,-0.022095, -0.020477, -0.254486,0.176758, -0.002197, 0.025360
175, 1740000.000000,-0.001617, 0.009827, -0.015900,-0.022095, -0.020477, -0.254486,0.176758, -0.002197, 0.025360
176, 1750000.000000,-0.001617, 0.009827, -0.015900,-0.022736, -0.020172, -0.253540,0.180176, -0.001282, 0.024200
177, 1760000.000000,-0.001282, 0.008820, -0.013794,-0.022736, -0.020172, -0.253540,0.180176, -0.001282, 0.024200
178, 1770000.000000,-0.001282, 0.008820, -0.013794,-0.022736, -0.020172, -0.253540,0.180176, -0.001282, 0.024200
179, 1780000.000000,-0.001831, 0.007477, -0.013947,-0.022736, -0.020172, -0.253540,0.180176, -0.001282, 0.024200
180, 1790000.000000,-0.001831, 0.007477, -0.013947,-0.022736, -0.021301, -0.254974,0.182770, 0.000763, 0.023163
181, 1800000.000000,-0.000793, 0.006683, -0.013611,-0.020386, -0.021301, -0.254974,0.182770, 0.000763, 0.023163
182, 1810000.000000,-0.000793, 0.006683, -0.013611,-0.020386, -0.021301, -0.254974,0.182770, 0.000763, 0.023163
183, 1820000.000000,0.007019, 0.004852, -0.014099,-0.020386, -0.021301, -0.254974,0.182770, 0.000763, 0.023163
184, 1830000.000000,0.000214, 0.004852, -0.014099,-0.020386, -0.021301, -0.256805,0.184052, -0.002991, 0.020935
185, 1840000.000000,0.000214, 0.004852, -0.014099,-0.020752, -0.022522, -0.256805,0.184052, -0.002991, 0.020935
186, 1850000.000000,-0.001434, 0.002228, -0.013489,-0.020752, -0.022522, -0.256805,0.184052, -0.002991, 0.020935
187, 1860000.000000,-0.001434, 0.002228, -0.013489,-0.020752, -0.022522, -0.256805,0.184052, -0.002991, 0.020935
188, 1870000.000000,-0.002106, -0.000336, -0.013489,-0.020752, -0.022522, -0.256805,0.184052, 0.000519, 0.020386
189, 1880000.000000,-0.002106, -0.000336, -0.013489,-0.021545, -0.020996, -0.252380,0.184967, 0.000519, 0.020386
190, 1890000.000000,-0.001587, 0.002808, -0.015411,-0.021545, -0.020996, -0.252380,0.184967, 0.000519, 0.020386
191, 1900000.000000,-0.001587, 0.002808, -0.015411,-0.021545, -0.020996, -0.252380,0.184967, 0.000519, 0.020386
192, 1910000.000000,-0.001587, 0.002808, -0.014862,-0.021545, -0.020996, -0.252380,0.184967, 0.000519, 0.018524
193, 1920000.000000,-0.003082, 0.000458, -0.014862,-0.019623, -0.023102, -0.262268,0.182678, -0.000488, 0.018524
194, 1930000.000000,-0.003082, 0.000458, -0.014862,-0.019623, -0.023102, -0.262268,0.182678, -0.000488, 0.018524
195, 1940000.000000,-0.005646, -0.004059, -0.012390,-0.019623, -0.023102, -0.262268,0.182678, -0.000488, 0.018524
196, 1950000.000000,-0.005646, -0.004059, -0.012390,-0.019623, -0.023102, -0.262268,0.182678, -0.000488, 0.018524
197, 1960000.000000,-0.010773, -0.007507, -0.010071,-0.019684, -0.022858, -0.259735,0.186066, 0.000549, 0.023621
198, 1970000.000000,-0.010773, -0.007507, -0.010071,-0.019684, -0.022858, -0.259735,0.186066, 0.000549, 0.023621
199, 1980000.000000,-0.014435, -0.014130, -0.008972,-0.019684, -0.022858, -0.259735,0.186066, 0.000549, 0.023621
200, 1990000.000000,-0.014435, -0.014130, -0.008972,-0.019684, -0.022858, -0.259735,0.186066, 0.000549, 0.023621
201, 2000000.000000,-0.012238, -0.014618, -0.009155,-0.023438, -0.018524, -0.251953,0.180298, -0.001434, 0.022095
202, 2010000.000000,-0.012238, -0.014618, -0.009155,-0.023438, -0.018524, -0.251953,0.180298, -0.001434, 0.022095
203, 2020000.000000,-0.012238, -0.014618, -0.009155,-0.023438, -0.018524, -0.251953,0.180298, -0.001434, 0.022095
204, 2030000.000000,-0.010956, -0.010620, -0.010498,-0.023438, -0.018524, -0.251953,0.180298, -0.001434, 0.022095
205, 2040000.000000,-0.010956, -0.010620, -0.010498,-0.023712, -0.018738, -0.257538,0.179443, -0.005188, 0.019897
206, 2050000.000000,-0.009033, -0.007050, -0.011383,-0.023712, -0.018738, -0.257538,0.179443, -0.005188, 0.019897
207, 2060000.000000,-0.009033, -0.007050, -0.011383,-0.023712, -0.018738, -0.257538,0.179443, -0.005188, 0.019897
208, 2070000.000000,-0.008972, -0.006744, -0.012054,-0.023712, -0.018738, -0.257538,0.179443, -0.005188, 0.019897
209, 2080000.000000,-0.008972, -0.006744, -0.012054,-0.023712, -0.018738, -0.252228,0.182220, -0.002472, 0.028290
210, 2090000.000000,-0.008972, -0.006744, -0.013794,-0.023438, -0.018433, -0.252228,0.182220, -0.002472, 0.028290
211, 2100000.000000,-0.006317, -0.004883, -0.013794,-0.023438, -0.018433, -0.252228,0.182220, -0.002472, 0.028290
212, 2110000.000000,-0.005280, -0.006470, -0.013916,-0.023438, -0.018433, -0.252228,0.182526, -0.001526, 0.026917
213, 2120000.000000,-0.005280, -0.006470, -0.013916,-0.023621, -0.020111, -0.257935,0.182526, -0.001526, 0.026917
214, 2130000.000000,-0.001984, -0.006744, -0.014252,-0.023621, -0.020111, -0.257935,0.182526, -0.001526, 0.026917
215, 2140000.000000,-0.001984, -0.006744, -0.014252,-0.023621, -0.020111, -0.257935,0.182526, -0.001526, 0.026917
216, 2150000.000000,-0.001984, -0.006744, -0.014252,-0.023621, -0.020111, -0.257935,0.182526, -0.001526, 0.026917
217, 2160000.000000,-0.001221, -0.008881, -0.014679,-0.024719, -0.020721, -0.261322,0.186188, -0.001831, 0.025482
218, 2170000.000000,-0.001221, -0.008881, -0.022491,-0.024719, -0.020721, -0.261322,0.186188, -0.001831, 0.025482
219, 2180000.000000,0.000092, -0.012665, -0.015869,-0.024719, -0.020721, -0.261322,0.186188, -0.001831, 0.025482
220, 2190000.000000,0.000092, -0.012665, -0.015869,-0.024719, -0.020721, -0.261322,0.186188, -0.001831, 0.015045
221, 2200000.000000,0.004028, -0.019348, -0.017426,-0.016907, -0.023743, -0.279205,0.179321, -0.002258, 0.015045
222, 2210000.000000,0.004028, -0.019348, -0.017426,-0.016907, -0.023743, -0.279205,0.179321, -0.002258, 0.015045
223, 2220000.000000,0.007935, -0.032135, -0.021759,-0.016907, -0.023743, -0.279205,0.179321, -0.002258, 0.015045
224, 2230000.000000,0.007935, -0.032135, -0.021759,-0.016907, -0.023743, -0.279205,0.179321, -0.002258, 0.022858
225, 2240000.000000,0.003265, -0.043304, -0.017548,-0.030853, -0.028625, -0.272888,0.181335, -0.002716, 0.016235
226, 2250000.000000,0.003265, -0.043304, -0.017548,-0.030853, -0.028625, -0.272888,0.181335, -0.002716, 0.016235
227, 2260000.000000,-0.001129, -0.040588, -0.013214,-0.030853, -0.028625, -0.272888,0.181335, -0.002716, 0.016235
228, 2270000.000000,-0.001129, -0.040588, -0.013214,-0.030853, -0.028625, -0.272888,0.181335, -0.002716, 0.024048
229, 2280000.000000,-0.001129, -0.032776, -0.017273,-0.028839, -0.013184, -0.240540,0.181976, 0.000488, 0.023529
230, 2290000.000000,0.016205, -0.033936, -0.017273,-0.028839, -0.013184, -0.240540,0.181976, 0.000488, 0.023529
231, 2300000.000000,0.016205, -0.033936, -0.009460,-0.028839, -0.013184, -0.240540,0.181976, 0.000488, 0.023529
232, 2310000.000000,0.021790, -0.022827, -0.013763,-0.028839, -0.029846, -0.258148,0.178406, -0.000366, 0.021576
233, 2320000.000000,0.021790, -0.013885, -0.011383,-0.027191, -0.029846, -0.258148,0.178406, -0.000366, 0.021576
234, 2330000.000000,0.016602, -0.013885, -0.011383,-0.027191, -0.029846, -0.258148,0.178406, -0.000366, 0.021576
235, 2340000.000000,0.016602, -0.013885, -0.008606,-0.027191, -0.029846, -0.258148,0.178406, -0.000366, 0.021576
236, 2350000.000000,0.007172, -0.020569, -0.008606,-0.030304, -0.018463, -0.242584,0.181396, -0.001251, 0.018555
237, 2360000.000000,0.007172, -0.020569, -0.008606,-0.030304, -0.018463, -0.242584,0.181396, -0.001251, 0.018555
238, 2370000.000000,0.003998, -0.019226, -0.006989,-0.030304, -0.018463, -0.242584,0.181396, -0.001251, 0.018555
239, 2380000.000000,0.003998, -0.019226, -0.006989,-0.030304, -0.018463, -0.242584,0.181396, -0.001251, 0.018555
240, 2390000.000000,0.008392, -0.017303, -0.009491,-0.022491, -0.017456, -0.272156,0.179535, -0.000977, 0.022797
241, 2400000.000000,0.008392, -0.017303, -0.009491,-0.022491, -0.017456, -0.272156,0.179535, -0.000977, 0.022797
242, 2410000.000000,0.006592, -0.028625, -0.011871,-0.022491, -0.017456, -0.272156,0.179535, -0.000977, 0.022797
243, 2420000.000000,0.006592, -0.028625, -0.011871,-0.022491, -0.017456, -0.272156,0.179535, -0.000977, 0.022797
244, 2430000.000000,0.009644, -0.029205, -0.011688,-0.031281, -0.026642, -0.245667,0.177979, -0.000397, 0.022278
245, 2440000.000000,0.009644, -0.029205, -0.011688,-0.031281, -0.026642, -0.245667,0.177979, -0.000397, 0.022278
246, 2450000.000000,0.009644, -0.029205, -0.011688,-0.031281, -0.026642, -0.245667,0.177979, -0.000397, 0.022278
247, 2460000.000000,0.011505, -0.025177, -0.011292,-0.031281, -0.026642, -0.245667,0.177979, -0.000397, 0.022278
248, 2470000.000000,0.011505, -0.025177, -0.011292,-0.031281, -0.017975, -0.253326,0.180969, -0.000610, 0.020844
249, 2480000.000000,0.008759, -0.025665, -0.010468,-0.032104, -0.017975, -0.253326,0.180969, -0.000610, 0.020844
250, 2490000.000000,0.008759, -0.025665, -0.010468,-0.032104, -0.017975, -0.253326,0.180969, -0.000610, 0.020844
251, 2500000.000000,0.008484, -0.024323, -0.010773,-0.032104, -0.017975, -0.253326,0.180969, -0.000610, 0.020844
252, 2510000.000000,0.008484, -0.024323, -0.010773,-0.038086, -0.011108, -0.238434,0.181610, -0.001343, 0.018707
253, 2520000.000000,0.008301, -0.019379, -0.011353,-0.038086, -0.011108, -0.238434,0.181610, -0.001343, 0.018707
254, 2530000.000000,0.008301, -0.019379, -0.011353,-0.038086, -0.011108, -0.238434,0.181610, -0.001343, 0.018707
255, 2540000.000000,0.007263, -0.011688, -0.012726,-0.038086, -0.011108, -0.238434,0.181610, -0.001343, 0.018707
256, 2550000.000000,0.007263, -0.011688, -0.012726,-0.035828, -0.023041, -0.242432,0.181702, -0.002808, 0.020844
257, 2560000.000000,0.003754, -0.007660, -0.013275,-0.035828, -0.023041, -0.242432,0.181702, -0.002808, 0.020844
258, 2570000.000000,0.003754, -0.007660, -0.013275,-0.035828, -0.023041, -0.242432,0.181702, -0.002808, 0.020844
259, 2580000.000000,0.002136, -0.001526, -0.012604,-0.035828, -0.023041, -0.242432,0.181702, -0.002808, 0.020844
260, 2590000.000000,0.002136, -0.001526, -0.012604,-0.035553, -0.028412, -0.234344,0.176147, 0.000244, 0.025238
261, 2600000.000000,0.002136, -0.001526, -0.012604,-0.035553, -0.028412, -0.234344,0.176147, 0.000244, 0.025238
262, 2610000.000000,-0.001068, 0.001465, -0.011353,-0.035553, -0.028412, -0.234344,0.176147, 0.000244, 0.025238
263, 2620000.000000,-0.001068, 0.001465, -0.011353,-0.035553, -0.028412, -0.234344,0.176147, 0.000244, 0.025238
264, 2630000.000000,-0.002441, 0.009247, -0.010101,-0.035461, -0.021759, -0.237946,0.180511, -0.000427, 0.024475
265, 2640000.000000,-0.002441, 0.009247, -0.010101,-0.035461, -0.021759, -0.237946,0.180511, -0.000427, 0.024475
266, 2650000.000000,-0.003662, 0.018341, -0.009491,-0.035461, -0.021759, -0.237946,0.180511, -0.000427, 0.024475
267, 2660000.000000,-0.003662, 0.018341, -0.009491,-0.035461, -0.021759, -0.237946,0.180511, -0.000427, 0.024475
268, 2670000.000000,-0.003662, 0.025482, -0.009674,-0.035461, -0.027161, -0.227112,0.182159, -0.000916, 0.017853
269, 2680000.000000,-0.006897, 0.025482, -0.009674,-0.037811, -0.027161, -0.227112,0.182159, -0.000916, 0.017853
270, 2690000.000000,-0.006897, 0.025482, -0.009644,-0.037811, -0.027161, -0.227112,0.182159, -0.000916, 0.017853
271, 2700000.000000,-0.008911, 0.033386, -0.009644,-0.037811, -0.027161, -0.227112,0.182159, -0.000916, 0.017853
272, 2710000.000000,-0.008911, 0.035553, -0.008636,-0.030579, -0.016785, -0.252991,0.182343, -0.001221, 0.022583
273, 2720000.000000,-0.012634, 0.035553, -0.008636,-0.030579, -0.016785, -0.252991,0.182343, -0.001221, 0.022583
274, 2730000.000000,-0.012634, 0.035553, -0.008636,-0.030579, -0.016785, -0.252991,0.182343, -0.001221, 0.022583
275, 2740000.000000,-0.014038, 0.036957, -0.008362,-0.030579, -0.016785, -0.252991,0.182343, -0.001221, 0.022583
276, 2750000.000000,-0.014038, 0.036957, -0.008362,-0.044556, -0.024536, -0.249237,0.177765, -0.001312, 0.022034
277, 2760000.000000,-0.019104, 0.042450, -0.006989,-0.044556, -0.024536, -0.249237,0.177765, -0.001312, 0.022034
278, 2770000.000000,-0.019104, 0.042450, -0.006989,-0.044556, -0.024536, -0.249237,0.177765, -0.001312, 0.022034
279, 2780000.000000,-0.036652, 0.029449, -0.002930,-0.044556, -0.024536, -0.249237,0.177765, -0.001312, 0.022034
280, 2790000.000000,-0.036652, 0.029449, -0.002930,-0.046692, -0.006989, -0.229340,0.178711, -0.000946, 0.025055
281, 2800000.000000,-0.036163, 0.011292, -0.002441,-0.046692, -0.006989, -0.229340,0.178711, -0.000946, 0.025055
282, 2810000.000000,-0.036163, 0.011292, -0.002441,-0.046692, -0.006989, -0.229340,0.178711, -0.000946, 0.025055
283, 2820000.000000,-0.025696, 0.022247, -0.006195,-0.046692, -0.006989, -0.229340,0.178711, -0.000946, 0.025055
284, 2830000.000000,-0.025696, 0.022247, -0.006195,-0.027008, -0.020630, -0.274231,0.169739, -0.000885, 0.024597
285, 2840000.000000,-0.025696, 0.022247, -0.006195,-0.027008, -0.020630, -0.274231,0.169739, -0.000885, 0.024597
286, 2850000.000000,-0.028046, 0.009583, -0.005371,-0.027008, -0.020630, -0.274231,0.169739, -0.000885, 0.024597
287, 2860000.000000,-0.028046, 0.009583, -0.005371,-0.027008, -0.020630, -0.274231,0.169739, -0.000885, 0.024597
288, 2870000.000000,-0.014252, 0.009491, -0.009247,-0.034821, -0.016022, -0.260132,0.181610, -0.000946, 0.015564
289, 2880000.000000,-0.014252, 0.009491, -0.009247,-0.031281, -0.016022, -0.260132,0.181610, -0.000946, 0.015564
290, 2890000.000000,-0.007141, 0.007874, -0.011871,-0.031281, -0.016022, -0.260132,0.181610, -0.000946, 0.015564
291, 2900000.000000,-0.007141, 0.007874, -0.011871,-0.031281, -0.016022, -0.260132,0.181610, -0.000946, 0.031189
292, 2910000.000000,-0.005981, 0.008575, -0.010956,-0.031036, -0.015472, -0.249603,0.180176, -0.003571, 0.026367
293, 2920000.000000,-0.005981, 0.008575, -0.010956,-0.031036, -0.015472, -0.249603,0.180176, -0.003571, 0.026367
294, 2930000.000000,-0.005280, 0.010376, -0.010834,-0.031036, -0.015472, -0.249603,0.180176, -0.003571, 0.026367
295, 2940000.000000,-0.005280, 0.010376, -0.010834,-0.031036, -0.015472, -0.249603,0.180176, -0.000793, 0.028076
296, 2950000.000000,-0.002563, 0.011932, -0.010254,-0.032623, -0.009491, -0.250153,0.181549, -0.000793, 0.028076
297, 2960000.000000,-0.002563, 0.011932, -0.010254,-0.032623, -0.009491, -0.250153,0.181549, -0.000793, 0.028076
298, 2970000.000000,0.004181, 0.015106, -0.010681,-0.032623, -0.009491, -0.250153,0.181549, -0.000793, 0.028076
299, 2980000.000000,0.004181, 0.015106, -0.010681,-0.032623, -0.009491, -0.250153,0.181549, -0.000793, 0.028076
300, 2990000.000000,0.004181, 0.015106, -0.004639,-0.024109, -0.028229, -0.261017,0.181610, -0.002502, 0.022858
301, 3000000.000000,-0.002655, 0.014496, -0.004639,-0.024109, -0.028229, -0.261017,0.181610, -0.002502, 0.022858
302, 3010000.000000,-0.002655, 0.014496, -0.004639,-0.024109, -0.028229, -0.261017,0.181610, -0.002502, 0.022858
303, 3020000.000000,-0.017059, 0.008942, 0.002563,-0.024109, -0.028229, -0.261017,0.181610, -0.002502, 0.022858
304, 3030000.000000,-0.017059, 0.008942, 0.002563,-0.033386, -0.017822, -0.242737,0.182648, -0.002380, 0.028900
305, 3040000.000000,-0.024902, 0.010010, 0.006561,-0.033386, -0.017822, -0.242737,0.182648, -0.002380, 0.028900
306, 3050000.000000,-0.024902, 0.010010, 0.006561,-0.033386, -0.017822, -0.242737,0.182648, -0.002380, 0.028900
307, 3060000.000000,-0.024902, 0.019135, 0.010193,-0.033386, -0.017822, -0.242737,0.182648, -0.002380, 0.028900
308, 3070000.000000,-0.031128, 0.019135, 0.010193,-0.037659, -0.011383, -0.242462,0.180023, -0.002319, 0.023010
309, 3080000.000000,-0.031128, 0.019135, 0.009644,-0.037659, -0.011383, -0.242462,0.180023, -0.002319, 0.023010
310, 3090000.000000,-0.031128, 0.029694, 0.009644,-0.037659, -0.011383, -0.242462,0.180023, -0.002319, 0.023010
311, 3100000.000000,-0.031128, 0.029694, 0.009644,-0.037659, -0.011383, -0.242462,0.180023, -0.002319, 0.023010
312, 3110000.000000,-0.020599, 0.051178, 0.006744,-0.023224, -0.015778, -0.268677,0.180389, -0.003235, 0.023956
313, 3120000.000000,-0.020599, 0.051178, 0.004425,-0.023224, -0.015778, -0.268677,0.180389, -0.003235, 0.023956
314, 3130000.000000,-0.013367, 0.050140, 0.004425,-0.023224, -0.015778, -0.268677,0.180389, -0.003235, 0.023956
315, 3140000.000000,-0.013367, 0.050140, 0.004425,-0.023224, -0.015778, -0.268677,0.180389, -0.003235, 0.023956
316, 3150000.000000,-0.004608, 0.053741, 0.002563,-0.032715, -0.017456, -0.249786,0.183105, -0.000824, 0.023010
317, 3160000.000000,-0.004608, 0.053741, 0.002563,-0.032715, -0.017456, -0.249786,0.183105, -0.000824, 0.023010
318, 3170000.000000,0.001221, 0.066162, -0.006256,-0.032715, -0.017456, -0.249786,0.183105, -0.000824, 0.023010
319, 3180000.000000,0.001221, 0.066162, -0.006256,-0.032715, -0.017456, -0.249786,0.183105, -0.000824, 0.023010
320, 3190000.000000,0.012939, 0.076752, -0.017181,-0.015137, -0.030426, -0.271149,0.182617, -0.004089, 0.025635
321, 3200000.000000,0.012939, 0.076752, -0.017181,-0.015137, -0.030426, -0.271149,0.182617, -0.004089, 0.025635
322, 3210000.000000,0.013702, 0.065247, -0.023315,-0.015137, -0.030426, -0.271149,0.182617, -0.004089, 0.025635
323, 3220000.000000,0.013702, 0.065247, -0.023315,-0.015137, -0.030426, -0.271149,0.182617, -0.004089, 0.025635
324, 3230000.000000,0.021515, 0.080719, -0.028107,-0.022797, -0.019531, -0.257538,0.182037, -0.003082, 0.023071
325, 3240000.000000,0.022766, 0.080719, -0.028107,-0.022797, -0.019531, -0.257538,0.182037, -0.003082, 0.023071
326, 3250000.000000,0.022766, 0.080719, -0.028107,-0.022797, -0.019531, -0.257538,0.182037, -0.003082, 0.023071
327, 3260000.000000,0.025482, 0.077148, -0.028320,-0.022797, -0.019531, -0.257538,0.182037, -0.003082, 0.023071
328, 3270000.000000,0.025482, 0.077148, -0.028320,-0.024933, -0.017883, -0.255310,0.183929, -0.002533, 0.020813
329, 3280000.000000,0.030914, 0.077423, -0.027588,-0.024933, -0.017883, -0.255310,0.183929, -0.002533, 0.020813
330, 3290000.000000,0.030914, 0.077423, -0.027588,-0.024933, -0.017883, -0.255310,0.183929, -0.002533, 0.020813
331, 3300000.000000,0.030914, 0.073181, -0.027161,-0.024933, -0.017883, -0.255310,0.183929, -0.002533, 0.020813
332, 3310000.000000,0.027008, 0.073181, -0.027161,-0.025970, -0.023224, -0.258514,0.183105, -0.001740, 0.023285
333, 3320000.000000,0.027008, 0.073181, -0.027161,-0.025970, -0.023224, -0.258514,0.183105, -0.001740, 0.023285
334, 3330000.000000,0.018127, 0.077179, -0.027679,-0.025970, -0.023224, -0.258514,0.183105, -0.001740, 0.023285
335, 3340000.000000,0.018127, 0.077179, -0.027679,-0.025970, -0.023224, -0.258514,0.183105, -0.001740, 0.023285
336, 3350000.000000,0.009552, 0.079224, -0.029358,-0.025970, -0.023224, -0.242889,0.179932, -0.002686, 0.028595
337, 3360000.000000,0.009552, 0.079224, -0.029358,-0.039886, -0.005981, -0.247894,0.179932, -0.002686, 0.028595
338, 3370000.000000,0.009552, 0.079224, -0.028381,-0.039886, -0.005981, -0.247894,0.179932, -0.002686, 0.028595
339, 3380000.000000,0.008453, 0.103485, -0.028381,-0.039886, -0.005981, -0.247894,0.179932, -0.002686, 0.028595
340, 3390000.000000,0.008453, 0.103485, -0.028381,-0.039886, -0.005981, -0.247894,0.179932, -0.002686, 0.019379
341, 3400000.000000,0.013977, 0.121674, -0.032104,-0.026855, 0.005035, -0.242798,0.180145, -0.002167, 0.019379
342, 3410000.000000,0.013977, 0.121674, -0.032104,-0.026855, 0.005035, -0.242798,0.180145, -0.002167, 0.019379
343, 3420000.000000,0.037140, 0.138214, -0.035004,-0.026855, 0.005035, -0.242798,0.180145, -0.002167, 0.019379
344, 3430000.000000,0.037140, 0.138214, -0.035004,-0.026855, -0.010590, -0.256622,0.184967, -0.000854, 0.020508
345, 3440000.000000,0.043304, 0.147186, -0.034210,-0.019073, -0.008148, -0.256622,0.184967, -0.000854, 0.020508
346, 3450000.000000,0.043304, 0.147186, -0.034210,-0.019073, -0.008148, -0.256622,0.184967, -0.000854, 0.020508
347, 3460000.000000,0.066254, 0.162720, -0.025177,-0.019073, -0.008148, -0.256622,0.184967, -0.000854, 0.020508
348, 3470000.000000,0.066254, 0.162720, -0.025177,-0.019073, -0.008148, -0.264435,0.186981, -0.000549, 0.013306
349, 3480000.000000,0.059082, 0.188232, -0.021088,-0.015106, -0.019043, -0.259064,0.186981, -0.000549, 0.013306
350, 3490000.000000,0.059082, 0.188232, -0.021088,-0.015106, -0.019043, -0.259064,0.186981, -0.000549, 0.013306
351, 3500000.000000,0.059082, 0.188232, -0.019073,-0.015106, -0.019043, -0.259064,0.186981, -0.000549, 0.013306
352, 3510000.000000,0.076691, 0.192993, -0.019073,-0.015106, -0.019043, -0.259064,0.186981, -0.000549, 0.016174
353, 3520000.000000,0.076691, 0.192993, -0.019073,0.021973, -0.040619, -0.271271,0.182190, 0.000366, 0.016174
354, 3530000.000000,0.077637, 0.159851, -0.011261,0.021973, -0.040619, -0.271271,0.182190, 0.000366, 0.016174
355, 3540000.000000,0.077637, 0.159851, -0.011261,0.021973, -0.040619, -0.271271,0.182190, 0.000366, 0.016174
356, 3550000.000000,0.051422, 0.119202, -0.008453,0.021973, -0.040619, -0.271271,0.182190, 0.000366, 0.016174
357, 3560000.000000,0.051422, 0.119202, -0.008453,0.011475, -0.036377, -0.256226,0.178711, -0.002136, 0.015686
358, 3570000.000000,0.058533, 0.089081, -0.006897,0.011475, -0.036377, -0.256226,0.178711, -0.002136, 0.015686
359, 3580000.000000,0.058533, 0.089081, -0.006897,0.011475, -0.036377, -0.256226,0.178711, -0.002136, 0.015686
360, 3590000.000000,0.058533, 0.089081, -0.006897,0.011475, -0.036377, -0.256226,0.178711, -0.002136, 0.015686
361, 3600000.000000,0.044800, 0.068634, -0.005615,-0.014465, -0.040680, -0.260223,0.182587, -0.002747, 0.014252
362, 3610000.000000,0.044800, 0.068634, -0.005615,-0.014465, -0.040680, -0.260223,0.182587, -0.002747, 0.014252
363, 3620000.000000,0.043488, 0.098389, 0.000824,-0.014465, -0.040680, -0.260223,0.182587, -0.002747, 0.014252
364, 3630000.000000,0.043488, 0.098389, 0.000824,-0.014465, -0.040680, -0.260223,0.182587, -0.002747, 0.014252
365, 3640000.000000,0.004578, 0.104889, -0.001129,-0.002380, -0.038055, -0.257385,0.181244, -0.001007, 0.013245
366, 3650000.000000,0.004578, 0.104889, -0.001129,-0.002380, -0.038055, -0.257385,0.181244, -0.001007, 0.013245
367, 3660000.000000,-0.019012, 0.107544, 0.006195,-0.002380, -0.038055, -0.257385,0.181244, -0.001007, 0.013245
368, 3670000.000000,-0.019012, 0.107544, 0.006195,-0.002380, -0.038055, -0.257385,0.181244, -0.001007, 0.013245
369, 3680000.000000,-0.029816, 0.119873, 0.006500,-0.017273, -0.043732, -0.258148,0.184479, -0.002075, 0.007324
370, 3690000.000000,-0.029816, 0.119873, 0.006500,-0.017273, -0.043732, -0.258148,0.184479, -0.002075, 0.007324
371, 3700000.000000,-0.029816, 0.119873, -0.049530,-0.017273, -0.043732, -0.258148,0.184479, -0.002075, 0.007324
372, 3710000.000000,-0.030426, 0.112000, -0.049530,-0.017273, -0.043732, -0.258148,0.184479, -0.002075, 0.007324
373, 3720000.000000,-0.030426, 0.112000, -0.049530,0.024292, -0.039307, -0.263031,0.182556, -0.002441, 0.011871
374, 3730000.000000,-0.019012, 0.134369, -0.039062,0.024292, -0.039307, -0.263031,0.182556, -0.002441, 0.011871
375, 3740000.000000,-0.019012, 0.134369, -0.039062,0.024292, -0.039307, -0.263031,0.182556, -0.002441, 0.011871
376, 3750000.000000,-0.071533, 0.222168, -0.021149,0.024292, -0.039307, -0.263031,0.182556, -0.002441, 0.011871
377, 3760000.000000,-0.071533, 0.222168, -0.021149,-0.143585, -0.042847, -0.305969,0.182312, -0.002228, 0.013641
378, 3770000.000000,-0.207642, 0.339264, 0.131134,-0.143585, -0.042847, -0.305969,0.182312, -0.002228, 0.013641
379, 3780000.000000,-0.207642, 0.339264, 0.131134,-0.143585, -0.042847, -0.305969,0.182312, -0.002228, 0.013641
380, 3790000.000000,-0.109833, 0.485382, 0.028534,-0.143585, -0.042847, -0.305969,0.182312, -0.002228, 0.013641
381, 3800000.000000,-0.109833, 0.485382, 0.028534,-0.081421, -0.075378, -0.296600,0.179718, -0.003296, 0.006012
382, 3810000.000000,-0.109833, 0.709991, -0.127625,-0.081421, -0.075378, -0.296600,0.179718, -0.003296, 0.006012
383, 3820000.000000,-0.162781, 0.709991, -0.127625,-0.081421, -0.075378, -0.296600,0.179718, -0.003296, 0.006012
384, 3830000.000000,-0.162781, 0.709991, -0.127625,-0.081421, -0.075378, -0.296600,0.179718, -0.003296, 0.006012
385, 3840000.000000,-0.261932, 0.875488, -0.159576,-0.120819, -0.192657, -0.416107,0.181610, 0.002045, -0.007294
386, 3850000.000000,-0.261932, 0.875488, -0.159576,-0.120819, -0.192657, -0.416107,0.181610, 0.002045, -0.007294
387, 3860000.000000,-0.427734, 0.981018, -0.235992,-0.120819, -0.192657, -0.416107,0.181610, 0.002045, -0.007294
388, 3870000.000000,-0.427734, 0.981018, -0.235992,-0.120819, -0.192657, -0.416107,0.181610, 0.002045, -0.007294
389, 3880000.000000,-0.299133, 0.989258, -0.419342,-0.120819, -0.019653, -0.440887,0.180695, 0.005737, -0.016724
390, 3890000.000000,-0.299133, 0.989258, -0.419342,-0.112640, -0.019653, -0.440887,0.180695, 0.005737, -0.016724
391, 3900000.000000,-0.299133, 0.989258, -0.419342,-0.112640, -0.019653, -0.440887,0.180695, 0.005737, -0.016724
392, 3910000.000000,-0.050140, 0.989258, -0.589294,-0.112640, -0.019653, -0.440887,0.180695, 0.005737, -0.016724
393, 3920000.000000,-0.050140, 0.989258, -0.589294,-0.112640, -0.019653, -0.440887,0.180695, 0.013550, -0.038879
394, 3930000.000000,-0.114563, 0.989258, -0.683350,-0.338959, -0.056580, -0.592560,0.169189, 0.014343, -0.038879
395, 3940000.000000,-0.114563, 0.989258, -0.683350,-0.338959, -0.056580, -0.592560,0.169189, 0.014343, -0.038879
396, 3950000.000000,-0.374908, 0.989258, -0.739990,-0.338959, -0.056580, -0.592560,0.169189, 0.014343, -0.038879
397, 3960000.000000,-0.374908, 0.989258, -0.739990,-0.338959, -0.056580, -0.592560,0.169189, 0.014343, -0.055481
398, 3970000.000000,-0.684143, 0.989258, -0.733765,-0.712097, -0.276794, -0.028015,0.155792, 0.018402, -0.055481
399, 3980000.000000,-0.684143, 0.989258, -0.733765,-0.712097, -0.276794, -0.028015,0.155792, 0.018402, -0.055481
400, 3990000.000000,-0.684143, 0.989258, -0.733765,-0.712097, -0.276794, -0.028015,0.155792, 0.018402, -0.055481
401, 4000000.000000,-0.637329, 0.989258, -0.323883,-0.712097, -0.276794, -0.028015,0.155792, 0.018402, -0.055481
402, 4010000.000000,-0.637329, 0.989258, -0.323883,0.652649, -0.654968, -0.999756,0.134766, 0.013214, -0.074951
403, 4020000.000000,-0.328949, 0.910217, 0.214142,0.652649, -0.654968, -0.999756,0.134766, 0.013214, -0.074951
404, 4030000.000000,-0.328949, 0.910217, 0.214142,0.652649, -0.654968, -0.999756,0.134766, 0.013214, -0.074951
405, 4040000.000000,-0.328949, 0.910217, 0.462036,0.652649, -0.654968, -0.999756,0.134766, 0.013214, -0.074951
406, 4050000.000000,-0.343506, 0.645447, 0.462036,0.652649, -0.654968, -0.999664,0.129883, 0.006683, -0.064819
407, 4060000.000000,-0.343506, 0.645447, 0.462036,-0.087738, -0.096375, -0.999664,0.129883, 0.006683, -0.064819
408, 4070000.000000,-0.185303, -0.308228, 0.512238,-0.087738, -0.096375, -0.999664,0.129883, 0.006683, -0.064819
409, 4080000.000000,-0.185303, -0.308228, 0.512238,-0.087738, -0.096375, -0.999664,0.129883, 0.006683, -0.064819
410, 4090000.000000,0.007172, -0.639587, 0.443939,-0.087738, -0.096375, -0.999664,0.129883, 0.006683, -0.053467
411, 4100000.000000,0.007172, -0.639587, 0.443939,-0.274933, 0.175446, -0.472290,0.124695, 0.005615, -0.053467
412, 4110000.000000,0.007172, -0.639587, 0.315338,-0.274933, 0.175446, -0.472290,0.124695, 0.005615, -0.053467
413, 4120000.000000,0.171722, -0.652802, 0.315338,-0.274933, 0.175446, -0.472290,0.124695, 0.005615, -0.053467
414, 4130000.000000,0.171722, -0.652802, 0.315338,-0.274933, 0.175446, -0.472290,0.124695, 0.005615, -0.053467
415, 4140000.000000,0.252655, -0.649475, 0.180786,-0.208832, 0.150208, -0.545410,0.130859, 0.005371, -0.054596
416, 4150000.000000,0.252655, -0.649475, 0.180786,-0.208832, 0.150208, -0.545410,0.130859, 0.005371, -0.054596
417, 4160000.000000,0.288391, -0.752441, 0.081940,-0.208832, 0.150208, -0.545410,0.130859, 0.005371, -0.054596
418, 4170000.000000,0.288391, -0.752441, 0.081940,-0.208832, 0.150208, -0.545410,0.130859, 0.005371, -0.054596
419, 4180000.000000,0.288635, -0.930328, 0.044220,-0.132874, 0.016785, -0.529266,0.141937, 0.002136, -0.039398
420, 4190000.000000,0.288635, -0.930328, 0.044220,-0.132874, 0.016785, -0.529266,0.141937, 0.002136, -0.039398
421, 4200000.000000,0.257019, -0.999268, 0.054657,-0.132874, 0.016785, -0.529266,0.141937, 0.002136, -0.039398
422, 4210000.000000,0.257019, -0.999268, 0.054657,-0.132874, -0.025757, -0.290741,0.152344, -0.013062, -0.012146
423, 4220000.000000,0.204620, -1.000000, 0.083099,-0.092285, -0.025757, -0.290741,0.152344, -0.013062, -0.012146
424, 4230000.000000,0.204620, -1.000000, 0.083099,-0.092285, -0.025757, -0.290741,0.152344, -0.013062, -0.012146
425, 4240000.000000,0.153290, -1.000000, 0.094269,-0.092285, -0.025757, -0.290741,0.152344, -0.013062, -0.012146
426, 4250000.000000,0.153290, -1.000000, 0.094269,-0.092285, -0.025757, -0.280762,0.141937, -0.022675, 0.005829
427, 4260000.000000,0.153290, -1.000000, 0.078064,-0.033295, 0.013519, -0.280762,0.141937, -0.022675, 0.005829
428, 4270000.000000,0.128845, -1.000000, 0.078064,-0.033295, 0.013519, -0.280762,0.141937, -0.022675, 0.005829
429, 4280000.000000,0.128845, -1.000000, 0.078064,-0.033295, 0.013519, -0.280762,0.141937, -0.022675, 0.005829
430, 4290000.000000,0.145325, -1.000000, 0.065643,-0.033295, 0.013519, -0.280762,0.141937, -0.025726, -0.004639
431, 4300000.000000,0.145325, -1.000000, 0.065643,0.018738, -0.055908, -0.436188,0.130920, -0.025726, -0.004639
432, 4310000.000000,0.164734, -1.000000, 0.085358,0.018738, -0.055908, -0.436188,0.130920, -0.025726, -0.004639
433, 4320000.000000,0.164734, -1.000000, 0.085358,0.018738, -0.055908, -0.436188,0.130920, -0.025726, -0.004639
434, 4330000.000000,0.166077, -1.000000, 0.127625,0.018738, -0.055908, -0.436188,0.130920, -0.025726, -0.004639
435, 4340000.000000,0.166077, -1.000000, 0.127625,0.089478, -0.043304, -0.442780,0.137268, -0.015991, -0.004608
436, 4350000.000000,0.166077, -1.000000, 0.166351,0.089478, -0.043304, -0.442780,0.137268, -0.015991, -0.004608
437, 4360000.000000,0.177795, -1.000000, 0.166351,0.089478, -0.043304, -0.442780,0.137268, -0.015991, -0.004608
438, 4370000.000000,0.193420, -1.000000, 0.191467,0.089478, -0.043304, -0.442780,0.150360, -0.016052, 0.006531
439, 4380000.000000,0.188995, -1.000000, 0.191467,0.149963, 0.047028, -0.425415,0.150360, -0.016052, 0.006531
440, 4390000.000000,0.189178, -1.000000, 0.191010,0.149963, 0.047028, -0.425415,0.150360, -0.016052, 0.006531
441, 4400000.000000,0.189178, -1.000000, 0.191010,0.149963, 0.047028, -0.425415,0.150360, -0.016052, 0.006531
442, 4410000.000000,0.189178, -1.000000, 0.150604,0.196442, 0.129730, -0.445404,0.141083, -0.017822, 0.042572
443, 4420000.000000,0.175507, -1.000000, 0.150604,0.196442, 0.129730, -0.445404,0.141083, -0.017822, 0.042572
444, 4430000.000000,0.175507, -1.000000, 0.150604,0.196442, 0.129730, -0.445404,0.141083, -0.017822, 0.042572
445, 4440000.000000,0.146149, -1.000000, 0.098846,0.196442, 0.129730, -0.445404,0.141083, -0.017822, 0.042572
446, 4450000.000000,0.146149, -1.000000, 0.098846,0.282379, -0.011780, -0.496613,0.121124, -0.028839, 0.057800
447, 4460000.000000,0.090363, -1.000000, 0.069427,0.285980, -0.011780, -0.496613,0.121124, -0.028839, 0.057800
448, 4470000.000000,0.090363, -1.000000, 0.069427,0.285980, -0.011780, -0.496613,0.121124, -0.028839, 0.057800
449, 4480000.000000,0.025177, -1.000000, 0.102844,0.285980, -0.011780, -0.496613,0.121124, -0.028839, 0.057800
450, 4490000.000000,0.025177, -1.000000, 0.102844,0.285980, -0.121155, -0.263794,0.086945, -0.027374, 0.064514
451, 4500000.000000,0.009552, -1.000000, 0.181671,0.358307, -0.121063, -0.263794,0.086945, -0.027374, 0.064514
452, 4510000.000000,0.009552, -1.000000, 0.181671,0.358307, -0.121063, -0.263794,0.086945, -0.027374, 0.064514
453, 4520000.000000,0.009552, -1.000000, 0.246521,0.358307, -0.121063, -0.263794,0.086945, -0.027374, 0.064514
454, 4530000.000000,0.091583, -1.000000, 0.246521,0.358307, -0.014008, -0.150452,0.074097, -0.022949, 0.013000
455, 4540000.000000,0.091583, -1.000000, 0.246521,0.401489, -0.014008, -0.150452,0.074097, -0.022949, 0.013000
456, 4550000.000000,0.258057, -0.995605, 0.278320,0.401489, -0.014008, -0.150452,0.074097, -0.022949, 0.013000
457, 4560000.000000,0.258057, -0.995605, 0.278320,0.401489, -0.014008, -0.150452,0.074097, -0.022949, 0.013000
458, 4570000.000000,0.427185, -0.942230, 0.325134,0.667114, -0.128479, -0.336243,0.101624, -0.021332, -0.011627
459, 4580000.000000,0.427185, -0.942230, 0.325134,0.671814, -0.128479, -0.336243,0.101624, -0.021332, -0.011627
460, 4590000.000000,0.503937, -0.861664, 0.404968,0.671814, -0.128479, -0.336243,0.101624, -0.021332, -0.011627
461, 4600000.000000,0.503937, -0.861664, 0.404968,0.671814, -0.128479, -0.336243,0.101624, -0.021332, -0.011627
462, 4610000.000000,0.459290, -0.770050, 0.472900,0.984314, 0.044281, -0.244080,0.135590, -0.033112, -0.002136
463, 4620000.000000,0.459290, -0.770050, 0.472900,0.983215, 0.044281, -0.244080,0.135590, -0.033112, -0.002136
464, 4630000.000000,0.459290, -0.770050, 0.373535,0.983215, 0.044281, -0.244080,0.135590, -0.033112, -0.002136
465, 4640000.000000,0.383179, -0.647369, 0.373535,0.983215, 0.044281, -0.244080,0.135590, -0.033112, -0.002136
466, 4650000.000000,0.383179, -0.225494, 0.187653,0.780090, 0.361786, 0.324219,0.170990, -0.055359, 0.021820
467, 4660000.000000,0.417084, -0.225830, 0.187653,0.776764, 0.361786, 0.324219,0.170990, -0.055359, 0.021820
468, 4670000.000000,0.417084, -0.225830, -0.148285,0.776764, 0.361786, 0.324219,0.170990, -0.055359, 0.021820
469, 4680000.000000,0.231750, 0.303650, -0.144653,0.776764, 0.361786, 0.324219,0.170990, -0.055359, 0.021820
470, 4690000.000000,0.231750, 0.303650, -0.144653,0.776764, 0.111938, -0.253784,0.194214, -0.073425, 0.036163
471, 4700000.000000,-0.256439, 0.248047, -0.364899,0.999756, 0.111938, -0.253784,0.194214, -0.073425, 0.036163
472, 4710000.000000,-0.256439, 0.248047, -0.364899,0.999756, 0.111938, -0.253784,0.194214, -0.073425, 0.036163
473, 4720000.000000,-0.376221, 0.397400, -0.465027,0.999756, 0.111938, -0.253784,0.194214, -0.073425, 0.036163
474, 4730000.000000,-0.376221, 0.397400, -0.465027,0.999756, -0.139832, 0.405579,0.229004, -0.075134, 0.050171
475, 4740000.000000,-0.381531, 0.721100, -0.501556,0.999756, -0.139832, 0.405579,0.229004, -0.075134, 0.050171
476, 4750000.000000,-0.381531, 0.721100, -0.501556,0.999756, -0.139832, 0.405579,0.229004, -0.075134, 0.050171
477, 4760000.000000,-0.381531, 0.962585, -0.270355,0.999756, -0.139832, 0.405579,0.229004, -0.075134, 0.050171
478, 4770000.000000,-0.539215, 0.962585, -0.270355,0.999756, -0.139832, -0.822906,0.238342, -0.075623, 0.057068
479, 4780000.000000,-0.539215, 0.962585, -0.270355,0.537354, -0.085449, -0.822906,0.238342, -0.075623, 0.057068
480, 4790000.000000,-0.568573, 0.348083, 0.057526,0.537354, -0.085449, -0.822906,0.238342, -0.075623, 0.057068
481, 4800000.000000,0.549164, 0.183197, -0.280548,0.537354, -0.085449, -0.822906,0.238342, -0.075623, 0.041443
482, 4810000.000000,0.549164, 0.183197, -0.280548,-0.327057, 0.117035, -0.466797,0.241669, -0.077545, 0.041504
483, 4820000.000000,0.549164, 0.269135, 0.276093,-0.327057, 0.117035, -0.466797,0.241669, -0.077545, 0.041504
484, 4830000.000000,-0.701050, 0.267181, 0.276093,-0.327057, 0.117035, -0.466797,0.241669, -0.077545, 0.041504
485, 4840000.000000,-0.701050, 0.267181, 0.276093,-0.327057, 0.117035, -0.466797,0.241669, -0.077545, 0.041504
486, 4850000.000000,-0.672821, -0.058319, -0.111053,-0.029968, -0.187988, -0.335388,0.245667, -0.078186, 0.048920
487, 4860000.000000,-0.672821, -0.058319, -0.111053,-0.029968, -0.187988, -0.335388,0.245667, -0.078186, 0.048920
488, 4870000.000000,0.009705, 0.070740, 0.098633,-0.029968, -0.187988, -0.335388,0.245667, -0.078186, 0.048920
489, 4880000.000000,0.009705, 0.070740, 0.098633,-0.029968, -0.187988, -0.335388,0.245667, -0.078186, 0.048920
490, 4890000.000000,0.114807, 0.166229, 0.056641,0.000000, 0.000092, -0.348999,0.241180, -0.080017, 0.044952
491, 4900000.000000,0.114807, 0.166229, 0.056641,0.000000, 0.000092, -0.348999,0.241180, -0.080017, 0.044952
492, 4910000.000000,0.074799, 0.106201, 0.026550,0.000000, 0.000092, -0.348999,0.241180, -0.080017, 0.044952
493, 4920000.000000,0.074799, 0.106201, 0.026550,0.000000, 0.000092, -0.348999,0.241180, -0.080017, 0.052765
494, 4930000.000000,0.069733, 0.066986, -0.018188,0.006439, -0.037201, -0.284241,0.245087, -0.080139, 0.046875
495, 4940000.000000,0.069733, 0.066986, -0.018188,0.006439, -0.037201, -0.284241,0.245087, -0.080139, 0.046875
496, 4950000.000000,0.069733, 0.020111, -0.007782,0.006439, -0.037201, -0.284241,0.245087, -0.080139, 0.046875
497, 4960000.000000,0.017670, 0.019043, -0.007782,0.006439, -0.037201, -0.284241,0.245087, -0.080139, 0.046875
498, 4970000.000000,0.017670, 0.019043, -0.007782,-0.035614, -0.034882, -0.239410,0.244934, -0.081482, 0.040527
499, 4980000.000000,0.032654, 0.022583, -0.007599,-0.035614, -0.034882, -0.239410,0.244934, -0.081482, 0.040527
500, 4990000.000000,0.032654, 0.022583, 0.018616,-0.035614, -0.034882, -0.239410,0.244934, -0.081482, 0.040527
501, 5000000.000000,0.024048, 0.044159, 0.018616,-0.035614, -0.034882, -0.239410,0.244934, -0.081482, 0.045166
502, 5010000.000000,0.024048, 0.044159, 0.018616,-0.026947, -0.026215, -0.248199,0.245819, -0.081482, 0.045166
503, 5020000.000000,-0.000366, 0.066650, 0.001984,-0.026947, -0.026215, -0.248199,0.245819, -0.081482, 0.045166
504, 5030000.000000,-0.000366, 0.066650, 0.001984,-0.026947, -0.026215, -0.248199,0.245819, -0.081482, 0.045166
505, 5040000.000000,0.041321, 0.069214, 0.023224,-0.026947, -0.026215, -0.248199,0.245819, -0.081696, 0.042145
506, 5050000.000000,0.041321, 0.069214, 0.023224,-0.009247, -0.035889, -0.264801,0.247894, -0.081696, 0.042145
507, 5060000.000000,0.057526, 0.067505, 0.016602,-0.009247, -0.035889, -0.264801,0.247894, -0.081696, 0.042145
508, 5070000.000000,0.057526, 0.067505, 0.016602,-0.009247, -0.035889, -0.264801,0.247894, -0.081696, 0.042145
509, 5080000.000000,0.057526, 0.075317, 0.007812,-0.009247, -0.035889, -0.264801,0.247894, -0.081696, 0.034332
510, 5090000.000000,0.067444, 0.075287, 0.007812,-0.025085, -0.048431, -0.257019,0.244812, -0.081055, 0.038971
511, 5100000.000000,0.067444, 0.075287, 0.013184,-0.025085, -0.048431, -0.257019,0.244812, -0.081055, 0.038971
512, 5110000.000000,0.060425, 0.129822, 0.013184,-0.025085, -0.048431, -0.257019,0.244812, -0.081055, 0.038971
513, 5120000.000000,0.060425, 0.129822, 0.013184,-0.025085, -0.048431, -0.257019,0.244812, -0.081055, 0.033722
514, 5130000.000000,-0.006073, 0.211456, 0.034607,-0.002075, -0.049530, -0.271729,0.241547, -0.084290, 0.033722
515, 5140000.000000,-0.006073, 0.211456, 0.034607,-0.002075, -0.049530, -0.271729,0.241547, -0.084290, 0.033722
516, 5150000.000000,-0.122284, 0.251587, 0.061249,-0.002075, -0.049530, -0.271729,0.241547, -0.084290, 0.033722
517, 5160000.000000,-0.122284, 0.251587, 0.061249,-0.002075, -0.049530, -0.271729,0.241547, -0.084290, 0.033722
518, 5170000.000000,-0.123230, 0.301727, 0.023071,-0.059753, -0.029694, -0.245789,0.241608, -0.083130, 0.031921
519, 5180000.000000,-0.123230, 0.301727, 0.023071,-0.059753, -0.029694, -0.245789,0.241608, -0.083130, 0.031921
520, 5190000.000000,-0.123230, 0.301727, -0.099396,-0.059753, -0.029694, -0.245789,0.241608, -0.083130, 0.031921
521, 5200000.000000,-0.130463, 0.573151, -0.099396,-0.059753, -0.029694, -0.245789,0.241608, -0.083130, 0.016296
522, 5210000.000000,-0.130463, 0.573151, -0.099396,-0.212219, -0.226715, -0.408234,0.248535, -0.081787, 0.020935
523, 5220000.000000,-0.216034, 0.898895, -0.101013,-0.212219, -0.226715, -0.408234,0.248535, -0.081787, 0.020935
524, 5230000.000000,-0.216034, 0.898895, -0.101013,-0.212219, -0.226715, -0.408234,0.248535, -0.081787, 0.020935
525, 5240000.000000,-0.130676, 0.989258, -0.125854,-0.212219, -0.226715, -0.408234,0.248535, -0.081787, 0.020935
526, 5250000.000000,-0.130676, 0.989258, -0.125854,-0.496124, 0.113617, -0.793610,0.252472, -0.076050, -0.011322
527, 5260000.000000,0.131470, 0.989258, -0.419708,-0.496124, 0.113617, -0.793610,0.252472, -0.076050, -0.011322
528, 5270000.000000,0.131470, 0.989258, -0.419708,-0.496124, 0.113617, -0.793610,0.252472, -0.076050, -0.011322
529, 5280000.000000,0.303925, 0.989258, -0.627075,-0.496124, 0.113617, -0.793610,0.252472, -0.076050, -0.011322
530, 5290000.000000,0.303925, 0.989258, -0.627075,-0.179077, 0.017273, -0.095886,0.253937, -0.062744, -0.078003
531, 5300000.000000,-0.000763, 0.989258, -0.826904,-0.179077, 0.017273, -0.095886,0.253937, -0.062744, -0.078003
532, 5310000.000000,-0.003662, 0.989258, -0.826904,-0.179077, 0.017273, -0.095886,0.253937, -0.062744, -0.078003
533, 5320000.000000,-0.003662, 0.989258, -0.826904,-0.179077, 0.017273, -0.095886,0.253937, -0.062744, -0.078003
534, 5330000.000000,-0.219940, 0.986450, -0.762970,0.971466, -0.744873, -0.654480,0.221680, -0.054688, -0.131836
535, 5340000.000000,-0.219940, 0.986450, -0.762970,0.971466, -0.744873, -0.654480,0.221680, -0.054688, -0.131836
536, 5350000.000000,-0.310486, 0.947449, -0.165833,0.971466, -0.744873, -0.654480,0.221680, -0.054688, -0.131836
537, 5360000.000000,-0.310486, 0.947449, -0.165833,0.971466, -0.744873, -0.654480,0.221680, -0.054688, -0.131836
538, 5370000.000000,-0.251343, 0.951477, 0.280640,-0.036072, -0.450348, -0.999756,0.216797, -0.063080, -0.122925
539, 5380000.000000,-0.251343, 0.951477, 0.280640,-0.036072, -0.450348, -0.999756,0.216797, -0.063080, -0.122925
540, 5390000.000000,-0.220093, 0.539032, 0.346375,-0.036072, -0.450348, -0.999756,0.216797, -0.063080, -0.122925
541, 5400000.000000,-0.225037, 0.539032, 0.346375,-0.036072, -0.450348, -0.999756,0.216797, -0.063080, -0.092560
542, 5410000.000000,-0.136078, 0.450745, 0.378052,-0.141663, 0.035034, -0.625488,0.229248, -0.070709, -0.092560
543, 5420000.000000,-0.136078, 0.450745, 0.378052,-0.141663, 0.035034, -0.625488,0.229248, -0.070709, -0.092560
544, 5430000.000000,-0.011078, 0.663361, 0.301575,-0.141663, 0.035034, -0.625488,0.229248, -0.070709, -0.092560
545, 5440000.000000,-0.013519, 0.663361, 0.301575,-0.141663, 0.035034, -0.625488,0.229248, -0.070709, -0.084747
546, 5450000.000000,-0.013519, 0.663361, 0.301575,-0.303955, 0.284973, -0.559540,0.242645, -0.075409, -0.081268
547, 5460000.000000,0.111755, 0.921234, 0.131104,-0.303955, 0.284973, -0.559540,0.242645, -0.075409, -0.081268
548, 5470000.000000,0.111755, 0.921234, 0.131104,-0.303955, 0.284973, -0.559540,0.242645, -0.075409, -0.081268
549, 5480000.000000,0.198090, 0.984802, -0.071808,-0.303955, 0.284973, -0.559540,0.242645, -0.075409, -0.081268
550, 5490000.000000,0.198090, 0.984802, -0.071808,-0.288422, 0.255249, -0.999756,0.264465, -0.071716, -0.068695
551, 5500000.000000,0.237061, 0.859985, -0.264221,-0.288422, 0.255249, -0.999756,0.264465, -0.071716, -0.068695
552, 5510000.000000,0.237061, 0.859985, -0.264221,-0.288422, 0.255249, -0.999756,0.264465, -0.071716, -0.068695
553, 5520000.000000,0.237061, 0.859985, -0.264221,-0.288422, 0.255249, -0.999756,0.264465, -0.071716, -0.068695
554, 5530000.000000,0.196899, 0.560852, -0.399200,-0.288422, 0.255249, -0.998230,0.299561, -0.065460, -0.028320
555, 5540000.000000,0.196899, 0.560852, -0.399200,-0.333038, 0.008881, -0.998230,0.299561, -0.065460, -0.028320
556, 5550000.000000,0.110046, 0.241974, -0.435272,-0.333038, 0.008881, -0.998230,0.299561, -0.065460, -0.028320
557, 5560000.000000,0.110046, 0.241974, -0.435272,-0.333038, 0.008881, -0.998230,0.299561, -0.065460, -0.028320
558, 5570000.000000,0.110046, 0.241974, -0.383270,-0.333038, 0.008881, -0.998230,0.299561, -0.065460, 0.034180
559, 5580000.000000,-0.009857, -0.004120, -0.383270,-0.427490, -0.209747, -0.729767,0.327576, -0.064636, 0.038605
560, 5590000.000000,-0.009857, -0.004120, -0.383270,-0.427490, -0.209747, -0.729767,0.327576, -0.064636, 0.038605
561, 5600000.000000,-0.151367, -0.179871, -0.261414,-0.427490, -0.209747, -0.729767,0.327576, -0.064636, 0.038605
562, 5610000.000000,-0.151367, -0.179871, -0.261414,-0.427490, -0.209747, -0.729767,0.327576, -0.064636, 0.038605
563, 5620000.000000,-0.313904, -0.358185, -0.100891,-0.383423, -0.271820, -0.534241,0.321625, -0.067657, 0.132477
564, 5630000.000000,-0.313904, -0.358185, -0.100891,-0.383423, -0.271820, -0.534241,0.321625, -0.067657, 0.132477
565, 5640000.000000,-0.426605, -0.572693, 0.033081,-0.383423, -0.271820, -0.534241,0.321625, -0.067657, 0.132477
566, 5650000.000000,-0.426605, -0.572693, 0.033081,-0.383423, -0.271820, -0.534241,0.321625, -0.067657, 0.132477
567, 5660000.000000,-0.426605, -0.572693, 0.075073,-0.233826, -0.081848, -0.530212,0.264648, -0.061981, 0.218964
568, 5670000.000000,-0.415466, -0.814056, 0.075073,-0.233826, -0.081848, -0.530212,0.264648, -0.061981, 0.218964
569, 5680000.000000,-0.415466, -0.814056, 0.038971,-0.233826, -0.081848, -0.530212,0.264648, -0.061981, 0.218964
570, 5690000.000000,-0.287689, -0.983002, 0.038971,-0.233826, -0.081848, -0.530212,0.264648, -0.061981, 0.250214
571, 5700000.000000,-0.287689, -1.000000, -0.024628,-0.046875, -0.114502, -0.494202,0.151123, -0.050079, 0.255127
572, 5710000.000000,-0.165649, -1.000000, -0.024628,-0.046875, -0.114502, -0.494202,0.151123, -0.050079, 0.255127
573, 5720000.000000,-0.165649, -1.000000, -0.024628,-0.046875, -0.114502, -0.494202,0.151123, -0.050079, 0.255127
574, 5730000.000000,-0.112305, -1.000000, -0.078064,-0.046875, -0.114502, -0.494202,0.151123, -0.050079, 0.255127
575, 5740000.000000,-0.112305, -1.000000, -0.078064,0.133545, -0.269043, -0.332031,-0.003143, -0.027740, 0.190186
576, 5750000.000000,-0.070129, -1.000000, -0.087616,0.133545, -0.269043, -0.332031,-0.003143, -0.027740, 0.190186
577, 5760000.000000,-0.070129, -1.000000, -0.087616,0.133545, -0.269043, -0.332031,-0.003143, -0.027740, 0.190186
578, 5770000.000000,0.014984, -1.000000, -0.065338,0.133545, -0.269043, -0.332031,-0.003143, -0.027740, 0.190186
579, 5780000.000000,0.014984, -1.000000, -0.065338,0.260132, -0.227203, -0.309937,-0.089020, 0.006439, 0.031006
580, 5790000.000000,0.014984, -1.000000, -0.042908,0.260132, -0.227203, -0.309937,-0.089020, 0.006439, 0.031006
581, 5800000.000000,0.155701, -1.000000, -0.042908,0.260132, -0.227203, -0.309937,-0.089020, 0.006439, 0.031006
582, 5810000.000000,0.155701, -1.000000, -0.020416,0.260132, -0.227203, -0.309937,-0.089020, 0.045502, -0.082458
583, 5820000.000000,0.303497, -1.000000, -0.020416,0.346313, -0.222351, -0.413177,-0.027191, 0.043213, -0.082458
584, 5830000.000000,0.303497, -1.000000, 0.034241,0.346313, -0.222351, -0.413177,-0.027191, 0.043213, -0.082458
585, 5840000.000000,0.415070, -1.000000, 0.034241,0.346313, -0.222351, -0.413177,-0.027191, 0.043213, -0.082458
586, 5850000.000000,0.415070, -1.000000, 0.135803,0.346313, -0.222351, -0.522552,0.058746, 0.060364, -0.056213
587, 5860000.000000,0.485474, -1.000000, 0.136230,0.398407, -0.213959, -0.519135,0.058624, 0.060364, -0.056213
588, 5870000.000000,0.485474, -1.000000, 0.136230,0.398407, -0.213959, -0.519135,0.058624, 0.060364, -0.056213
589, 5880000.000000,0.529877, -1.000000, 0.254913,0.398407, -0.213959, -0.519135,0.058624, 0.060364, -0.056213
590, 5890000.000000,0.529877, -1.000000, 0.254913,0.398407, -0.213959, -0.519135,0.058624, 0.060364, -0.007416
591, 5900000.000000,0.590149, -1.000000, 0.346771,0.422119, 0.026581, -0.492737,0.065613, 0.061523, -0.007416
592, 5910000.000000,0.590149, -1.000000, 0.346771,0.422119, 0.026581, -0.492737,0.065613, 0.061523, -0.007416
593, 5920000.000000,0.692780, -1.000000, 0.404755,0.422119, 0.026581, -0.492737,0.065613, 0.061523, -0.007416
594, 5930000.000000,0.692780, -1.000000, 0.404755,0.422119, 0.026581, -0.492737,0.065613, 0.061523, -0.007416
595, 5940000.000000,0.692780, -1.000000, 0.453339,0.441071, 0.096802, -0.603058,0.065521, 0.067719, -0.009888
596, 5950000.000000,0.740356, -1.000000, 0.453339,0.441071, 0.096802, -0.603058,0.065521, 0.067719, -0.009888
597, 5960000.000000,0.740356, -1.000000, 0.453339,0.441071, 0.096802, -0.603058,0.065521, 0.067719, -0.009888
598, 5970000.000000,0.648956, -1.000000, 0.510925,0.441071, 0.096802, -0.603058,0.065521, 0.067719, -0.009888
599, 5980000.000000,0.648956, -1.000000, 0.510925,0.616425, -0.014038, -0.726959,0.074402, 0.077972, -0.014404
600, 5990000.000000,0.501007, -1.000000, 0.566467,0.616425, -0.014038, -0.726959,0.074402, 0.077972, -0.014404
601, 6000000.000000,0.501007, -1.000000, 0.566467,0.616425, -0.014038, -0.726959,0.074402, 0.077972, -0.014404
602, 6010000.000000,0.360718, -1.000000, 0.587860,0.616425, -0.014038, -0.726959,0.074402, 0.077972, -0.014404
603, 6020000.000000,0.360718, -1.000000, 0.587860,0.952820, -0.073517, -0.964966,0.089447, 0.088898, -0.012695
604, 6030000.000000,0.206268, -1.000000, 0.563873,0.952820, -0.073517, -0.964966,0.089447, 0.088898, -0.012695
605, 6040000.000000,0.206268, -1.000000, 0.563873,0.952820, -0.073517, -0.964966,0.089447, 0.088898, -0.012695
606, 6050000.000000,0.206268, -1.000000, 0.563873,0.952820, -0.073517, -0.964966,0.089447, 0.088898, -0.012695
607, 6060000.000000,0.019257, -1.000000, 0.461548,0.999756, 0.039886, -0.571808,0.103943, 0.091888, -0.004578
608, 6070000.000000,-0.066895, -1.000000, 0.298004,0.999756, 0.039886, -0.571808,0.103943, 0.091888, -0.004578
609, 6080000.000000,-0.066895, -1.000000, 0.298004,0.999756, 0.039886, -0.571808,0.103943, 0.091888, -0.004578
610, 6090000.000000,0.041687, -0.961365, 0.065887,0.999756, 0.194244, 0.476929,0.110809, 0.099518, 0.006287
611, 6100000.000000,0.041687, -0.961365, 0.065887,0.999756, 0.194244, 0.476929,0.110809, 0.099518, 0.006287
612, 6110000.000000,0.041687, -0.961365, -0.262238,0.999756, 0.194244, 0.476929,0.110809, 0.099518, 0.006287
613, 6120000.000000,0.274719, -0.547150, -0.263977,0.999756, 0.194244, 0.476929,0.110809, 0.099518, 0.006287
614, 6130000.000000,0.274719, -0.547150, -0.263977,0.999756, -0.094818, 0.092926,0.117828, 0.105408, 0.011810
615, 6140000.000000,0.453156, -0.199280, -0.497192,0.999756, -0.099457, 0.092926,0.117828, 0.105408, 0.011810
616, 6150000.000000,0.453156, -0.199280, -0.497192,0.999756, -0.099457, 0.092926,0.117828, 0.105408, 0.011810
617, 6160000.000000,0.449951, -0.003540, -0.500122,0.999756, -0.099457, 0.092926,0.117828, 0.105408, 0.011810
618, 6170000.000000,0.449951, -0.003540, -0.500122,0.999756, -0.099457, 0.780426,0.124176, 0.115082, 0.022766
619, 6180000.000000,-0.009003, 0.682343, -0.446442,0.841309, 0.023651, 0.774017,0.124176, 0.115082, 0.022766
620, 6190000.000000,-0.009003, 0.682343, -0.446442,0.841309, 0.023651, 0.774017,0.124176, 0.115082, 0.022766
621, 6200000.000000,-0.009003, 0.682343, -0.537750,0.841309, 0.023651, 0.774017,0.124176, 0.115082, 0.022766
622, 6210000.000000,-0.709167, 0.989227, -0.537750,0.841309, 0.023651, 0.774017,0.131989, 0.133575, 0.013153
623, 6220000.000000,-0.709167, 0.989227, -0.568146,0.691406, -0.185944, -0.394592,0.129181, 0.133575, 0.013153
624, 6230000.000000,-0.997284, 0.989258, -0.568146,0.691406, -0.185944, -0.394592,0.129181, 0.133575, 0.013153
625, 6240000.000000,-0.997284, 0.989258, -0.568146,0.691406, -0.185944, -0.394592,0.129181, 0.133575, 0.013153
626, 6250000.000000,-0.908630, 0.845337, 0.066132,0.691406, -0.185944, -0.394592,0.129181, 0.133575, 0.007660
627, 6260000.000000,-0.908630, 0.845337, 0.066132,0.568939, 0.989319, -0.503448,0.134033, 0.138428, 0.007660
628, 6270000.000000,0.199707, 0.205902, 0.033569,0.568939, 0.989319, -0.503448,0.134033, 0.138428, 0.007660
629, 6280000.000000,0.199707, 0.205902, 0.033569,0.568939, 0.989319, -0.503448,0.134033, 0.138428, 0.007660
630, 6290000.000000,-0.689514, 0.341095, -0.147095,0.568939, -0.130310, 0.022980,0.130402, 0.139343, 0.005707
631, 6300000.000000,-0.689514, 0.341095, -0.147095,0.319641, -0.130310, 0.022980,0.130402, 0.139343, 0.005707
632, 6310000.000000,-0.348938, 0.048004, 0.202057,0.319641, -0.130310, 0.022980,0.130402, 0.139343, 0.005707
633, 6320000.000000,-0.348938, 0.048004, 0.202057,0.319641, -0.130310, 0.022980,0.130402, 0.139343, 0.005707
634, 6330000.000000,-0.114075, 0.113922, -0.081665,0.009918, 0.015198, -0.275848,0.136139, 0.141449, 0.005676
635, 6340000.000000,-0.114075, 0.113922, -0.081665,0.009918, 0.015198, -0.275848,0.136139, 0.141449, 0.005676
636, 6350000.000000,-0.054932, 0.015594, 0.006348,0.009918, 0.015198, -0.275848,0.136139, 0.141449, 0.005676
637, 6360000.000000,-0.054932, 0.015594, 0.006348,0.009918, 0.015198, -0.275848,0.136139, 0.141449, 0.005676
638, 6370000.000000,-0.054932, 0.015594, -0.050476,-0.011505, -0.005615, -0.273163,0.130371, 0.143219, 0.006165
639, 6380000.000000,-0.045685, -0.021149, -0.050476,-0.011505, -0.005615, -0.273163,0.130371, 0.143219, 0.006165
640, 6390000.000000,-0.045685, -0.021149, -0.050476,-0.011505, -0.005615, -0.273163,0.130371, 0.143219, 0.006165
641, 6400000.000000,-0.022400, -0.006439, -0.008362,-0.011505, -0.005615, -0.273163,0.130371, 0.143219, 0.006165
642, 6410000.000000,-0.022400, -0.006439, -0.008362,-0.011505, -0.016357, -0.268707,0.131683, 0.142273, 0.002502
643, 6420000.000000,-0.020264, -0.013336, 0.022400,-0.049469, -0.016357, -0.268707,0.131683, 0.142273, 0.002502
644, 6430000.000000,-0.020264, -0.013336, 0.022400,-0.049469, -0.016357, -0.268707,0.131683, 0.142273, 0.002502
645, 6440000.000000,0.007477, 0.068176, 0.037170,-0.049469, -0.016357, -0.268707,0.131683, 0.142273, 0.002502
646, 6450000.000000,0.007477, 0.068176, 0.037170,0.008942, -0.084595, -0.286865,0.133728, 0.141663, 0.005096
647, 6460000.000000,0.059052, 0.171326, -0.008453,0.008942, -0.084595, -0.286865,0.133728, 0.141663, 0.005096
648, 6470000.000000,0.059052, 0.171326, -0.008453,0.008942, -0.084595, -0.286865,0.133728, 0.141663, 0.005096
649, 6480000.000000,0.059448, 0.153412, 0.060822,0.008942, -0.084595, -0.286865,0.133728, 0.141663, -0.000916
650, 6490000.000000,0.059448, 0.153412, 0.060822,-0.015381, -0.039459, -0.263519,0.136200, 0.142914, -0.000916
651, 6500000.000000,0.036224, 0.175720, 0.008453,-0.015381, -0.039459, -0.263519,0.136200, 0.142914, -0.000916
652, 6510000.000000,0.036224, 0.175720, 0.008453,-0.015381, -0.039459, -0.263519,0.136200, 0.142914, -0.000916
653, 6520000.000000,0.036224, 0.316345, 0.048859,-0.015381, -0.039459, -0.263519,0.136200, 0.142914, -0.000916
654, 6530000.000000,0.058014, 0.319183, 0.048859,-0.029968, 0.002441, -0.301483,0.134735, 0.143494, -0.001068
655, 6540000.000000,0.058014, 0.319183, 0.048859,-0.029968, 0.002441, -0.301483,0.134735, 0.143494, -0.001068
656, 6550000.000000,-0.013428, 0.476105, 0.000671,-0.029968, 0.002441, -0.301483,0.134735, 0.143494, -0.001068
657, 6560000.000000,-0.013428, 0.476105, 0.000671,-0.029968, 0.002441, -0.301483,0.134735, 0.143494, -0.001068
658, 6570000.000000,-0.051331, 0.828278, 0.061951,-0.324005, -0.020599, -0.425812,0.129608, 0.141357, -0.000702
659, 6580000.000000,-0.051331, 0.828278, 0.061951,-0.324005, -0.020599, -0.425812,0.129608, 0.141357, -0.000702
660, 6590000.000000,-0.120697, 0.974060, -0.073669,-0.324005, -0.020599, -0.425812,0.129608, 0.141357, -0.000702
661, 6600000.000000,-0.120697, 0.974060, -0.073669,-0.324005, -0.020599, -0.425812,0.129608, 0.141357, -0.000702
662, 6610000.000000,-0.120697, 0.974060, -0.073669,-0.324005, 0.096588, -0.894592,0.131622, 0.146149, -0.019257
663, 6620000.000000,0.168671, 0.989258, -0.216003,-0.698425, 0.100250, -0.894592,0.131622, 0.146149, -0.019257
664, 6630000.000000,0.507202, 0.989258, -0.457947,-0.698425, 0.100250, -0.894592,0.131622, 0.146149, -0.019257
665, 6640000.000000,0.507202, 0.989258, -0.457947,-0.698425, 0.100250, -0.279449,0.122528, 0.148102, -0.032562
666, 6650000.000000,0.458069, 0.989258, -0.652557,-0.348938, -0.090210, -0.279449,0.122528, 0.148102, -0.032562
667, 6660000.000000,0.458069, 0.989258, -0.652557,-0.348938, -0.090210, -0.279449,0.122528, 0.148102, -0.032562
668, 6670000.000000,0.286804, 0.989258, -0.857422,-0.348938, -0.090210, -0.279449,0.122528, 0.148102, -0.032562
669, 6680000.000000,0.286804, 0.989258, -0.857422,-0.348938, -0.090210, -0.279449,0.098846, 0.147675, -0.044861
670, 6690000.000000,0.286804, 0.989258, -0.680176,0.926544, -0.416779, -0.653076,0.098846, 0.147675, -0.044861
671, 6700000.000000,0.284912, 0.985657, -0.680176,0.926544, -0.416779, -0.653076,0.098846, 0.147675, -0.044861
672, 6710000.000000,0.284912, 0.985657, -0.680176,0.926544, -0.416779, -0.653076,0.098846, 0.147675, -0.044861
673, 6720000.000000,0.001709, 0.986603, -0.401184,0.926544, -0.416779, -0.653076,0.091034, 0.139587, -0.050232
674, 6730000.000000,0.001709, 0.986603, -0.401184,0.109528, -0.325562, -0.999756,0.091400, 0.139587, -0.050232
675, 6740000.000000,0.048859, 0.824982, -0.441132,0.109528, -0.325562, -0.999756,0.091400, 0.139587, -0.050232
676, 6750000.000000,0.048859, 0.824982, -0.441132,0.109528, -0.325562, -0.999756,0.091400, 0.139587, -0.050232
677, 6760000.000000,-0.110748, 0.590393, -0.375092,0.109528, -0.325562, -0.999756,0.091400, 0.139587, -0.054199
678, 6770000.000000,-0.110748, 0.590393, -0.375092,-0.244232, -0.230499, -0.700897,0.091034, 0.127075, -0.054199
679, 6780000.000000,-0.110748, 0.640564, -0.319550,-0.244232, -0.230499, -0.700897,0.091034, 0.127075, -0.054199
680, 6790000.000000,-0.236481, 0.640564, -0.319550,-0.244232, -0.230499, -0.700897,0.091034, 0.127075, -0.054199
681, 6800000.000000,-0.236481, 0.640564, -0.319550,-0.244232, -0.230499, -0.700897,0.091034, 0.127075, -0.054199
682, 6810000.000000,-0.260559, 0.803589, -0.265503,-0.382385, -0.126587, -0.717468,0.095551, 0.117371, -0.059082
683, 6820000.000000,-0.260559, 0.803589, -0.265503,-0.382385, -0.126587, -0.717468,0.095551, 0.117371, -0.059082
684, 6830000.000000,-0.163513, 0.872742, -0.244537,-0.382385, -0.126587, -0.717468,0.095551, 0.117371, -0.059082
685, 6840000.000000,-0.163513, 0.872742, -0.244537,-0.382385, -0.126587, -0.717468,0.095551, 0.110352, -0.053375
686, 6850000.000000,-0.058105, 0.761169, -0.265778,-0.312347, -0.111847, -0.999756,0.098938, 0.110352, -0.053375
687, 6860000.000000,-0.058105, 0.761169, -0.265778,-0.312347, -0.111847, -0.999756,0.098938, 0.110352, -0.053375
688, 6870000.000000,0.007782, 0.500824, -0.280151,-0.312347, -0.111847, -0.999756,0.098938, 0.110352, -0.053375
689, 6880000.000000,0.007782, 0.500824, -0.280151,-0.363434, -0.262238, -0.999115,0.103058, 0.101440, -0.049500
690, 6890000.000000,-0.002686, 0.198029, -0.245575,-0.363434, -0.262238, -0.999115,0.103058, 0.101440, -0.049500
691, 6900000.000000,-0.002686, 0.198029, -0.245575,-0.363434, -0.262238, -0.999115,0.103058, 0.101440, -0.049500
692, 6910000.000000,-0.075073, -0.071411, -0.149628,-0.363434, -0.262238, -0.999115,0.103058, 0.101440, -0.049500
693, 6920000.000000,-0.075073, -0.071411, -0.149628,-0.435974, -0.374481, -0.814117,0.106812, 0.094574, -0.031799
694, 6930000.000000,-0.159058, -0.316742, 0.003784,-0.435974, -0.374481, -0.814117,0.106812, 0.094574, -0.031799
695, 6940000.000000,-0.159058, -0.316742, 0.003784,-0.435974, -0.374481, -0.814117,0.106812, 0.094574, -0.031799
696, 6950000.000000,-0.159058, -0.546600, 0.165039,-0.435974, -0.374481, -0.814117,0.106812, 0.094574, -0.031799
697, 6960000.000000,-0.224060, -0.546600, 0.165039,-0.352234, -0.218018, -0.539337,0.111328, 0.086121, -0.015594
698, 6970000.000000,-0.224060, -0.546600, 0.165039,-0.352234, -0.218018, -0.539337,0.111328, 0.086121, -0.015594
699, 6980000.000000,-0.249512, -0.784363, 0.256653,-0.352234, -0.218018, -0.539337,0.111328, 0.086121, -0.015594
700, 6990000.000000,-0.249512, -0.784363, 0.256653,-0.352234, -0.218018, -0.539337,0.111328, 0.086121, -0.015594
701, 7000000.000000,-0.118774, -0.970551, 0.283600,-0.352234, 0.031982, -0.440430,0.108612, 0.087585, -0.010651
702, 7010000.000000,-0.118774, -0.970551, 0.283600,-0.192200, 0.034363, -0.440430,0.108612, 0.087585, -0.010651
703, 7020000.000000,0.088287, -1.000000, 0.243042,-0.192200, 0.034363, -0.440430,0.108612, 0.087585, -0.010651
704, 7030000.000000,0.088287, -1.000000, 0.243042,-0.192200, 0.034363, -0.440430,0.108612, 0.087585, -0.010651
705, 7040000.000000,0.210602, -1.000000, 0.192291,0.010925, 0.036560, -0.420502,0.106720, 0.089050, -0.003052
706, 7050000.000000,0.210602, -1.000000, 0.192291,0.012390, 0.036560, -0.420502,0.106720, 0.089050, -0.003052
707, 7060000.000000,0.223938, -1.000000, 0.139160,0.012390, 0.036560, -0.420502,0.106720, 0.089050, -0.003052
708, 7070000.000000,0.223938, -1.000000, 0.139160,0.012390, 0.036560, -0.420502,0.106720, 0.089050, -0.003052
709, 7080000.000000,0.180695, -1.000000, 0.093109,0.176697, -0.022797, -0.416565,0.112244, 0.092224, 0.011688
710, 7090000.000000,0.180695, -1.000000, 0.093109,0.176697, -0.022797, -0.416565,0.112244, 0.092224, 0.011688
711, 7100000.000000,0.130768, -1.000000, 0.060852,0.176697, -0.022797, -0.416565,0.112244, 0.092224, 0.011688
712, 7110000.000000,0.130768, -1.000000, 0.060852,0.176697, -0.022797, -0.416565,0.112244, 0.092224, 0.027405
713, 7120000.000000,0.131897, -1.000000, 0.048523,0.280243, -0.075531, -0.500977,0.102051, 0.100006, 0.027405
714, 7130000.000000,0.131897, -1.000000, 0.048523,0.280243, -0.075531, -0.500977,0.102051, 0.100006, 0.027405
715, 7140000.000000,0.186584, -1.000000, 0.049713,0.280243, -0.075531, -0.500977,0.102051, 0.100006, 0.027405
716, 7150000.000000,0.182953, -1.000000, 0.049713,0.280243, -0.075531, -0.500977,0.102051, 0.100006, 0.027405
717, 7160000.000000,0.182953, -1.000000, 0.049713,0.374542, -0.018677, -0.519958,0.074310, 0.106628, 0.034210
718, 7170000.000000,0.278748, -1.000000, 0.051483,0.374542, -0.018677, -0.519958,0.074310, 0.106628, 0.034210
719, 7180000.000000,0.278748, -1.000000, 0.051483,0.374542, -0.018677, -0.519958,0.074310, 0.106628, 0.034210
720, 7190000.000000,0.405273, -1.000000, 0.047821,0.374542, -0.018677, -0.519958,0.074310, 0.106628, 0.034210
721, 7200000.000000,0.405273, -1.000000, 0.047821,0.487396, 0.055817, -0.501740,0.044006, 0.112762, 0.016571
722, 7210000.000000,0.545898, -1.000000, 0.052521,0.487396, 0.055817, -0.501740,0.044006, 0.112762, 0.016571
723, 7220000.000000,0.540527, -1.000000, 0.052521,0.487396, 0.055817, -0.501740,0.044006, 0.112762, 0.016571
724, 7230000.000000,0.540527, -1.000000, 0.100220,0.487396, 0.055817, -0.501740,0.044006, 0.112762, 0.016571
725, 7240000.000000,0.640808, -1.000000, 0.100220,0.572968, -0.076385, -0.529846,0.035095, 0.119812, -0.015350
726, 7250000.000000,0.638977, -1.000000, 0.220947,0.572968, -0.076385, -0.529846,0.035095, 0.119812, -0.015350
727, 7260000.000000,0.638977, -1.000000, 0.220947,0.572968, -0.076385, -0.529846,0.035095, 0.119812, -0.015350
728, 7270000.000000,0.638977, -1.000000, 0.392822,0.572968, -0.076385, -0.529846,0.035095, 0.119812, -0.015350
729, 7280000.000000,0.509247, -1.000000, 0.396057,0.694336, -0.223602, -0.697876,0.035522, 0.123627, -0.040558
730, 7290000.000000,0.509247, -1.000000, 0.396057,0.694336, -0.223602, -0.697876,0.035522, 0.123627, -0.040558
731, 7300000.000000,0.296295, -1.000000, 0.569824,0.694336, -0.223602, -0.697876,0.035522, 0.123627, -0.040558
732, 7310000.000000,0.296295, -1.000000, 0.569824,0.694336, -0.223602, -0.697876,0.035522, 0.123627, -0.048370
733, 7320000.000000,0.126343, -1.000000, 0.654022,0.932434, -0.081482, -0.825439,0.050964, 0.125488, -0.051270
734, 7330000.000000,0.126343, -1.000000, 0.654022,0.932434, -0.081482, -0.825439,0.050964, 0.125488, -0.051270
735, 7340000.000000,0.123383, -1.000000, 0.664246,0.932434, -0.081482, -0.825439,0.050964, 0.125488, -0.051270
736, 7350000.000000,0.123383, -1.000000, 0.664246,0.932434, -0.081482, -0.825439,0.050964, 0.125488, -0.051270
737, 7360000.000000,0.239960, -1.000000, 0.479370,0.999756, 0.097015, -0.608856,0.067780, 0.119171, -0.048218
738, 7370000.000000,0.239960, -1.000000, 0.479370,0.999756, 0.097015, -0.608856,0.067780, 0.119171, -0.048218
739, 7380000.000000,0.239960, -1.000000, 0.284058,0.999756, 0.097015, -0.608856,0.067780, 0.119171, -0.048218
740, 7390000.000000,0.421082, -0.999481, 0.284424,0.999756, 0.097015, -0.608856,0.067780, 0.119171, -0.048218
741, 7400000.000000,0.421082, -0.999481, 0.284424,0.999756, 0.127289, 0.369324,0.064911, 0.115631, -0.048798
742, 7410000.000000,0.605957, -0.834198, 0.074036,0.999756, 0.127289, 0.369324,0.064911, 0.115631, -0.048798
743, 7420000.000000,0.605957, -0.834198, 0.074036,0.999756, 0.127289, 0.369324,0.064911, 0.115631, -0.048798
744, 7430000.000000,0.649658, -0.369904, -0.074829,0.999756, 0.127289, 0.369324,0.064911, 0.115631, -0.048798
745, 7440000.000000,0.649658, -0.369904, -0.074829,0.999756, -0.232788, -0.037811,0.066589, 0.116486, -0.056091
746, 7450000.000000,0.625183, -0.098389, -0.082001,0.999756, -0.232788, -0.037811,0.066589, 0.116486, -0.056091
747, 7460000.000000,0.625183, -0.098389, -0.082001,0.999756, -0.232788, -0.037811,0.066589, 0.116486, -0.056091
748, 7470000.000000,0.524902, 0.005188, 0.028961,0.999756, -0.232788, -0.037811,0.066589, 0.124298, -0.057312
749, 7480000.000000,0.524902, 0.005188, 0.028961,0.999756, -0.104675, 0.366791,0.072266, 0.121735, -0.057312
750, 7490000.000000,0.409637, 0.251648, 0.086823,0.999756, -0.104675, 0.366791,0.072266, 0.121735, -0.057312
751, 7500000.000000,0.409637, 0.251648, 0.086823,0.999756, -0.104675, 0.366791,0.072266, 0.121735, -0.057312
752, 7510000.000000,0.409637, 0.251648, 0.086823,0.999756, -0.104675, 0.366791,0.072266, 0.121735, -0.057312
753, 7520000.000000,0.358032, 0.666260, 0.031860,0.651733, 0.410156, 0.934967,0.060425, 0.130585, -0.060516
754, 7530000.000000,0.358032, 0.666260, 0.031860,0.651733, 0.410156, 0.934967,0.060425, 0.130585, -0.060516
755, 7540000.000000,0.069336, 0.982483, -0.259033,0.651733, 0.410156, 0.934967,0.060425, 0.130585, -0.060516
756, 7550000.000000,0.069336, 0.982483, -0.259033,0.651733, 0.410156, 0.934967,0.060425, 0.130585, -0.060516
757, 7560000.000000,-0.862732, 0.989258, -0.731354,0.182281, -0.772125, -0.973663,0.036957, 0.130096, -0.068939
758, 7570000.000000,-0.862732, 0.989258, -0.731354,0.182281, -0.772125, -0.973663,0.036957, 0.130096, -0.068939
759, 7580000.000000,-0.840698, 0.941620, 0.001160,0.182281, -0.772125, -0.973663,0.036957, 0.130096, -0.068939
760, 7590000.000000,-0.840698, 0.941620, 0.001160,0.182281, -0.772125, -0.973663,0.036957, 0.130096, -0.068939
761, 7600000.000000,-0.840698, 0.941620, 0.040222,-0.415985, 0.963501, -0.403778,0.029419, 0.132660, -0.064178
762, 7610000.000000,-0.270599, 0.497650, 0.041443,-0.415985, 0.963501, -0.403778,0.029419, 0.132660, -0.064178
763, 7620000.000000,-0.270599, 0.497650, 0.041443,-0.415985, 0.963501, -0.403778,0.029419, 0.132660, -0.064178
764, 7630000.000000,-0.721222, 0.216278, -0.070740,-0.415985, 0.963501, -0.403778,0.029419, 0.132660, -0.064178
765, 7640000.000000,-0.721222, 0.216278, -0.070740,0.073578, -0.104126, -0.236633,0.028931, 0.127686, -0.067505
766, 7650000.000000,-0.456787, -0.105347, -0.010773,0.073578, -0.104126, -0.236633,0.028931, 0.127686, -0.067505
767, 7660000.000000,-0.456787, -0.105347, -0.010773,0.073578, -0.104126, -0.236633,0.028931, 0.127686, -0.067505
768, 7670000.000000,0.007690, 0.042145, 0.010284,0.073578, -0.104126, -0.236633,0.028931, 0.127686, -0.068268
769, 7680000.000000,0.007690, 0.042145, 0.010284,0.012878, -0.011383, -0.281586,0.033752, 0.129486, -0.068268
770, 7690000.000000,0.291992, 0.012817, -0.077820,0.012878, -0.011383, -0.281586,0.033752, 0.129486, -0.068268
771, 7700000.000000,0.291992, 0.012817, -0.077820,0.012878, -0.011383, -0.281586,0.033752, 0.129486, -0.068268
772, 7710000.000000,0.130371, -0.007172, 0.017395,0.012878, -0.011383, -0.281586,0.033752, 0.129486, -0.071075
773, 7720000.000000,0.130371, -0.007172, 0.017395,0.011353, -0.004578, -0.257629,0.033997, 0.128387, -0.071075
774, 7730000.000000,-0.075806, -0.080109, -0.028107,0.011353, -0.004578, -0.257629,0.033997, 0.128387, -0.071075
775, 7740000.000000,-0.075806, -0.080109, -0.028107,0.011353, -0.004578, -0.257629,0.033997, 0.128387, -0.071075
776, 7750000.000000,-0.075806, -0.048859, 0.038300,0.011353, -0.004578, -0.257629,0.033997, 0.128387, -0.063263
777, 7760000.000000,-0.065216, -0.052551, 0.038300,-0.036377, 0.002991, -0.242920,0.032898, 0.131165, -0.069763
778, 7770000.000000,-0.065216, -0.052551, 0.038300,-0.036377, 0.002991, -0.242920,0.032898, 0.131165, -0.069763
779, 7780000.000000,0.020508, -0.002258, 0.015900,-0.036377, 0.002991, -0.242920,0.032898, 0.131165, -0.069763
780, 7790000.000000,0.020508, -0.002258, 0.015900,-0.036377, 0.002991, -0.242920,0.032898, 0.131165, -0.069763
781, 7800000.000000,-0.055481, 0.052368, 0.047485,-0.031525, -0.044281, -0.258423,0.030731, 0.130768, -0.072723
782, 7810000.000000,-0.055481, 0.052368, 0.047485,-0.031525, -0.044281, -0.258423,0.030731, 0.130768, -0.072723
783, 7820000.000000,0.008881, 0.064117, 0.024292,-0.031525, -0.044281, -0.258423,0.030731, 0.130768, -0.072723
784, 7830000.000000,0.008881, 0.064117, 0.024292,-0.031525, -0.044281, -0.258423,0.030731, 0.130768, -0.072723
785, 7840000.000000,0.086823, 0.168243, -0.011566,-0.031982, -0.062958, -0.261841,0.027954, 0.130646, -0.066284
786, 7850000.000000,0.086823, 0.168243, -0.011566,-0.031982, -0.062958, -0.261841,0.027954, 0.130646, -0.066284
787, 7860000.000000,-0.023529, 0.272369, 0.014008,-0.031982, -0.062958, -0.261841,0.027954, 0.130646, -0.066284
788, 7870000.000000,-0.023529, 0.272369, 0.014008,-0.031982, -0.062958, -0.261841,0.035767, 0.131989, -0.067413
789, 7880000.000000,-0.094940, 0.367371, 0.066162,-0.013123, -0.026215, -0.256683,0.031647, 0.131989, -0.067413
790, 7890000.000000,-0.094940, 0.367371, 0.066162,-0.013123, -0.026215, -0.256683,0.031647, 0.131989, -0.067413
791, 7900000.000000,-0.094940, 0.367371, 0.066162,-0.013123, -0.026215, -0.256683,0.031647, 0.131989, -0.067413
792, 7910000.000000,0.020691, 0.665405, 0.013641,-0.013123, -0.026215, -0.256683,0.031647, 0.131989, -0.065521
793, 7920000.000000,0.020691, 0.665405, 0.013641,-0.607391, -0.162903, -0.395142,0.024689, 0.128357, -0.065521
794, 7930000.000000,-0.157135, 0.966553, -0.212372,-0.607391, -0.162903, -0.395142,0.024689, 0.128357, -0.065521
795, 7940000.000000,-0.157135, 0.966553, -0.212372,-0.607391, -0.162903, -0.395142,0.024689, 0.128357, -0.065521
796, 7950000.000000,0.187134, 0.989258, -0.208771,-0.607391, -0.162903, -0.395142,0.024689, 0.128357, -0.065521
797, 7960000.000000,0.187134, 0.989258, -0.208771,-0.605011, -0.006683, -0.828125,0.012024, 0.123016, -0.051605
798, 7970000.000000,0.187134, 0.989258, -0.208771,-0.605011, -0.006683, -0.828125,0.012024, 0.123016, -0.051605
799, 7980000.000000,0.599304, 0.989258, -0.536591,-0.605011, -0.006683, -0.828125,0.012024, 0.123016, -0.051605
800, 7990000.000000,0.599304, 0.989258, -0.536591,-0.605011, -0.006683, -0.828125,0.012024, 0.123016, -0.051605
801, 8000000.000000,0.661072, 0.989258, -0.737915,-0.480011, 0.011932, 0.052582,0.002197, 0.113373, -0.027588
802, 8010000.000000,0.661072, 0.989258, -0.737915,-0.478271, 0.011932, 0.052582,0.002197, 0.113373, -0.027588
803, 8020000.000000,0.661072, 0.989258, -0.892517,-0.478271, 0.011932, 0.052582,0.002197, 0.113373, -0.027588
804, 8030000.000000,0.432129, 0.989258, -0.892517,-0.478271, 0.011932, 0.052582,0.002197, 0.113373, -0.027588
805, 8040000.000000,0.432129, 0.989258, -0.892517,-0.478271, 0.011932, 0.052582,0.002197, 0.113373, -0.027588
806, 8050000.000000,0.407135, 0.978729, -0.691589,0.898712, -0.821625, -0.928314,0.000946, 0.102295, -0.001465
807, 8060000.000000,0.407135, 0.978729, -0.691589,0.898712, -0.821625, -0.928314,0.000946, 0.102295, -0.001465
808, 8070000.000000,0.029114, 0.975037, -0.305573,0.898712, -0.821625, -0.928314,0.000946, 0.102295, -0.001465
809, 8080000.000000,0.029114, 0.975037, -0.305573,0.898712, -0.821625, -0.928314,0.000946, 0.102295, -0.001465
810, 8090000.000000,0.096558, 0.855988, -0.080322,-0.066956, -0.482819, -0.999756,0.005249, 0.090454, -0.002075
811, 8100000.000000,0.096558, 0.855988, -0.080322,-0.066956, -0.482819, -0.999756,0.005249, 0.090454, -0.002075
812, 8110000.000000,-0.053101, 0.377411, 0.013855,-0.066956, -0.482819, -0.999756,0.005249, 0.090454, -0.002075
813, 8120000.000000,-0.053101, 0.377411, 0.013855,-0.066956, -0.482819, -0.999756,0.005249, 0.083862, -0.013641
814, 8130000.000000,-0.053101, 0.377411, 0.029785,-0.303955, -0.090210, -0.527252,0.005096, 0.083862, -0.013641
815, 8140000.000000,-0.112427, 0.324249, 0.029785,-0.303955, -0.090210, -0.527252,0.005096, 0.083862, -0.013641
816, 8150000.000000,-0.112427, 0.324249, 0.029785,-0.303955, -0.090210, -0.527252,0.005096, 0.083862, -0.013641
817, 8160000.000000,-0.082428, 0.576477, -0.024902,-0.303955, -0.090210, -0.527252,0.005096, 0.083862, -0.020874
818, 8170000.000000,-0.082428, 0.576477, -0.024902,-0.374481, 0.044556, -0.623413,0.011292, 0.075562, -0.020874
819, 8180000.000000,-0.006134, 0.805328, -0.117798,-0.374481, 0.044556, -0.623413,0.011292, 0.075562, -0.020874
820, 8190000.000000,-0.006134, 0.805328, -0.117798,-0.374481, 0.044556, -0.623413,0.011292, 0.075562, -0.020874
821, 8200000.000000,0.066528, 0.798889, -0.211212,-0.374481, 0.044556, -0.623413,0.011292, 0.075562, -0.020874
822, 8210000.000000,0.066528, 0.798889, -0.211212,-0.302399, 0.028412, -0.999115,0.013702, 0.069519, -0.024719
823, 8220000.000000,0.066528, 0.564514, -0.290771,-0.302399, 0.028412, -0.999115,0.013702, 0.069519, -0.024719
824, 8230000.000000,0.100769, 0.569061, -0.290771,-0.302399, 0.028412, -0.999115,0.013702, 0.069519, -0.024719
825, 8240000.000000,0.100769, 0.569061, -0.290771,-0.302399, 0.028412, -0.999115,0.013702, 0.069519, -0.024719
826, 8250000.000000,0.075012, 0.263336, -0.345947,-0.267792, -0.047882, -0.982239,0.014923, 0.063660, -0.029968
827, 8260000.000000,0.075012, 0.263336, -0.345947,-0.267792, -0.047882, -0.982239,0.014923, 0.063660, -0.029968
828, 8270000.000000,-0.011810, 0.013550, -0.369263,-0.267792, -0.047882, -0.982239,0.014923, 0.063660, -0.029968
829, 8280000.000000,-0.113373, -0.181213, -0.366608,-0.267792, -0.119690, -0.754242,0.027802, 0.059418, -0.039978
830, 8290000.000000,-0.116119, -0.181213, -0.366608,-0.286896, -0.119690, -0.754242,0.027802, 0.059418, -0.039978
831, 8300000.000000,-0.204987, -0.322357, -0.332642,-0.286896, -0.119690, -0.754242,0.027802, 0.059418, -0.039978
832, 8310000.000000,-0.204987, -0.322357, -0.332642,-0.286896, -0.119690, -0.754242,0.027802, 0.059418, -0.039978
833, 8320000.000000,-0.256531, -0.463470, -0.264740,-0.331299, -0.196289, -0.574707,0.037994, 0.054718, -0.038391
834, 8330000.000000,-0.256531, -0.463470, -0.264740,-0.331299, -0.196289, -0.574707,0.037994, 0.054718, -0.038391
835, 8340000.000000,-0.256531, -0.463470, -0.264740,-0.331299, -0.196289, -0.574707,0.037994, 0.054718, -0.038391
836, 8350000.000000,-0.310791, -0.641022, -0.176636,-0.331299, -0.196289, -0.574707,0.037994, 0.054718, -0.030579
837, 8360000.000000,-0.310791, -0.641022, -0.098511,-0.176971, -0.230133, -0.603485,0.047668, 0.052368, -0.027893
838, 8370000.000000,-0.381531, -0.882080, -0.101227,-0.176971, -0.230133, -0.603485,0.047668, 0.052368, -0.027893
839, 8380000.000000,-0.381531, -0.882080, -0.101227,-0.176971, -0.230133, -0.603485,0.047668, 0.052368, -0.027893
840, 8390000.000000,-0.366089, -0.997894, -0.042389,-0.176971, -0.230133, -0.603485,0.047668, 0.052368, -0.027893
841, 8400000.000000,-0.366089, -0.997894, -0.042389,-0.023132, -0.192017, -0.453705,0.043335, 0.044861, -0.015900
842, 8410000.000000,-0.263184, -1.000000, -0.004517,-0.023132, -0.192017, -0.453705,0.043335, 0.044861, -0.015900
843, 8420000.000000,-0.263184, -1.000000, -0.004517,-0.023132, -0.192017, -0.453705,0.043335, 0.044861, -0.015900
844, 8430000.000000,-0.263184, -1.000000, 0.028839,-0.023132, -0.192017, -0.453705,0.043335, 0.044861, -0.015900
845, 8440000.000000,-0.144684, -1.000000, 0.028839,0.130341, -0.283447, -0.279175,0.030243, 0.043549, -0.012878
846, 8450000.000000,-0.144684, -1.000000, 0.028839,0.130341, -0.283447, -0.279175,0.030243, 0.043549, -0.012878
847, 8460000.000000,-0.048065, -1.000000, 0.091492,0.130341, -0.283447, -0.279175,0.030243, 0.043549, -0.012878
848, 8470000.000000,-0.048065, -1.000000, 0.091492,0.130341, -0.283447, -0.279175,0.030243, 0.043549, -0.012878
849, 8480000.000000,0.052917, -1.000000, 0.153595,0.198822, -0.144714, -0.307617,0.011139, 0.050415, -0.035187
850, 8490000.000000,0.052917, -1.000000, 0.153595,0.198822, -0.144714, -0.307617,0.011139, 0.050415, -0.035187
851, 8500000.000000,0.196625, -1.000000, 0.170685,0.198822, -0.144714, -0.307617,0.011139, 0.050415, -0.035187
852, 8510000.000000,0.196625, -1.000000, 0.170685,0.198822, -0.144714, -0.307617,0.011139, 0.050415, -0.035187
853, 8520000.000000,0.345062, -1.000000, 0.142181,0.198822, -0.046722, -0.495209,0.009338, 0.065155, -0.056732
854, 8530000.000000,0.343872, -1.000000, 0.142181,0.336182, -0.046722, -0.495209,0.009338, 0.065155, -0.056732
855, 8540000.000000,0.433075, -1.000000, 0.110504,0.336182, -0.046722, -0.495209,0.009338, 0.065155, -0.056732
856, 8550000.000000,0.433075, -1.000000, 0.110504,0.336182, -0.046722, -0.495209,0.009338, 0.065155, -0.056732
857, 8560000.000000,0.433075, -1.000000, 0.112518,0.430756, -0.111084, -0.477539,0.015594, 0.081024, -0.088837
858, 8570000.000000,0.445740, -1.000000, 0.112518,0.430756, -0.111084, -0.477539,0.015594, 0.081024, -0.088837
859, 8580000.000000,0.445740, -1.000000, 0.112518,0.430756, -0.111084, -0.477539,0.015594, 0.081024, -0.088837
860, 8590000.000000,0.446594, -1.000000, 0.141632,0.430756, -0.111084, -0.477539,0.015594, 0.081024, -0.088837
861, 8600000.000000,0.446594, -1.000000, 0.141632,0.468628, 0.065948, -0.432709,0.042236, 0.089691, -0.114899
862, 8610000.000000,0.531189, -1.000000, 0.151337,0.468628, 0.065948, -0.432709,0.042236, 0.089691, -0.114899
863, 8620000.000000,0.531189, -1.000000, 0.151337,0.468628, 0.065948, -0.432709,0.042236, 0.089691, -0.114899
864, 8630000.000000,0.686066, -1.000000, 0.140961,0.468628, 0.065948, -0.432709,0.042236, 0.089691, -0.114899
865, 8640000.000000,0.686066, -1.000000, 0.140961,0.554565, -0.072601, -0.643494,0.074585, 0.092834, -0.116730
866, 8650000.000000,0.686066, -1.000000, 0.196686,0.548737, -0.072601, -0.643494,0.074585, 0.092834, -0.116730
867, 8660000.000000,0.766144, -1.000000, 0.196686,0.548737, -0.072601, -0.643494,0.074585, 0.092834, -0.116730
868, 8670000.000000,0.766144, -1.000000, 0.196686,0.548737, -0.072601, -0.643494,0.074585, 0.092834, -0.116730
869, 8680000.000000,0.683533, -1.000000, 0.346436,0.548737, -0.265015, -0.711761,0.103149, 0.094177, -0.096039
870, 8690000.000000,0.683533, -1.000000, 0.346436,0.647491, -0.265015, -0.711761,0.103149, 0.094177, -0.096039
871, 8700000.000000,0.470062, -1.000000, 0.517365,0.647491, -0.265015, -0.711761,0.103149, 0.094177, -0.096039
872, 8710000.000000,0.298889, -1.000000, 0.606415,0.647491, -0.265015, -0.711761,0.113892, 0.091339, -0.085663
873, 8720000.000000,0.298889, -1.000000, 0.606415,0.914032, 0.002991, -0.752686,0.113892, 0.091339, -0.085663
874, 8730000.000000,0.312958, -1.000000, 0.567169,0.914032, 0.002991, -0.752686,0.113892, 0.091339, -0.085663
875, 8740000.000000,0.312958, -1.000000, 0.567169,0.914032, 0.002991, -0.752686,0.113892, 0.091339, -0.085663
876, 8750000.000000,0.462189, -1.000000, 0.440857,0.999756, -0.035583, -0.607758,0.123962, 0.097961, -0.087067
877, 8760000.000000,0.462189, -1.000000, 0.440857,0.999756, -0.035583, -0.607758,0.123962, 0.097961, -0.087067
878, 8770000.000000,0.462189, -1.000000, 0.401794,0.999756, -0.035583, -0.607758,0.123962, 0.097961, -0.087067
879, 8780000.000000,0.536316, -0.986938, 0.404388,0.999756, -0.035583, -0.607758,0.123962, 0.097961, -0.087067
880, 8790000.000000,0.536316, -0.783813, 0.351776,0.999756, -0.105713, 0.166931,0.119873, 0.100830, -0.079956
881, 8800000.000000,0.382172, -0.787445, 0.351776,0.999756, -0.105713, 0.166931,0.119873, 0.100830, -0.079956
882, 8810000.000000,0.382172, -0.787445, 0.351776,0.999756, -0.105713, 0.166931,0.119873, 0.100830, -0.079956
883, 8820000.000000,0.186493, -0.395416, 0.237457,0.999756, -0.105713, 0.166931,0.119873, 0.100830, -0.079956
884, 8830000.000000,0.186493, -0.395416, 0.237457,0.999756, 0.198608, 0.255005,0.126862, 0.103241, -0.074707
885, 8840000.000000,0.330658, -0.101624, 0.055878,0.999756, 0.198608, 0.255005,0.126862, 0.103241, -0.074707
886, 8850000.000000,0.330658, -0.101624, 0.055878,0.999756, 0.198608, 0.255005,0.126862, 0.103241, -0.074707
887, 8860000.000000,0.564545, 0.181915, -0.140320,0.999756, 0.198608, 0.255005,0.126862, 0.103241, -0.074707
888, 8870000.000000,0.564545, 0.181915, -0.140320,0.999756, 0.119507, 0.945892,0.125183, 0.112122, -0.069305
889, 8880000.000000,0.536194, 0.784943, -0.227509,0.754883, 0.119507, 0.945892,0.125183, 0.112122, -0.069305
890, 8890000.000000,0.536194, 0.784943, -0.227509,0.754883, 0.119507, 0.945892,0.125183, 0.112122, -0.069305
891, 8900000.000000,-0.415710, 0.989258, -0.554779,0.754883, 0.119507, 0.945892,0.125183, 0.112122, -0.078705
892, 8910000.000000,-0.415710, 0.989258, -0.554779,0.679749, 0.073059, -0.286438,0.114014, 0.113861, -0.078705
893, 8920000.000000,-0.997681, 0.989258, -0.865967,0.679749, 0.073059, -0.286438,0.114014, 0.113861, -0.078705
894, 8930000.000000,-0.997681, 0.989258, -0.865967,0.679749, 0.073059, -0.286438,0.114014, 0.113861, -0.078705
895, 8940000.000000,-0.979584, 0.844299, -0.007660,0.679749, 0.073059, -0.286438,0.114014, 0.113861, -0.078705
896, 8950000.000000,-0.979584, 0.844299, -0.007660,0.784760, 0.726746, -0.730682,0.104919, 0.104340, -0.083740
897, 8960000.000000,-0.979584, 0.201752, 0.043701,0.784760, 0.726746, -0.730682,0.104919, 0.104340, -0.083740
898, 8970000.000000,-0.498352, 0.201752, 0.043701,0.784760, 0.726746, -0.730682,0.104919, 0.104340, -0.083740
899, 8980000.000000,-0.498352, 0.201752, 0.043701,0.784760, 0.726746, -0.730682,0.104919, 0.104340, -0.083740
900, 8990000.000000,-0.513794, 0.502655, -0.237976,0.055328, -0.138153, -0.232422,0.099213, 0.103760, -0.095367
901, 9000000.000000,-0.513794, 0.502655, -0.237976,0.055328, -0.138153, -0.232422,0.099213, 0.103760, -0.095367
902, 9010000.000000,-0.271149, 0.146118, 0.202576,0.055328, -0.138153, -0.232422,0.099213, 0.103760, -0.095367
903, 9020000.000000,-0.271149, 0.146118, 0.202576,0.055328, -0.138153, -0.232422,0.099213, 0.103760, -0.095367
904, 9030000.000000,-0.271149, 0.146118, -0.153778,0.026672, 0.036041, -0.279480,0.096527, 0.101257, -0.094757
905, 9040000.000000,-0.169067, 0.016632, -0.153778,0.026672, 0.036041, -0.279480,0.096527, 0.101257, -0.094757
906, 9050000.000000,-0.169067, 0.016632, -0.153778,0.026672, 0.036041, -0.279480,0.096527, 0.101257, -0.094757
907, 9060000.000000,-0.085602, -0.023712, -0.032837,0.026672, 0.036041, -0.279480,0.096527, 0.101257, -0.094757
908, 9070000.000000,-0.085602, -0.023712, -0.032837,0.026672, 0.036041, -0.373230,0.098114, 0.102692, -0.094391
909, 9080000.000000,-0.062317, 0.045471, -0.045471,0.073822, -0.002075, -0.369720,0.098114, 0.102692, -0.094391
910, 9090000.000000,-0.062317, 0.045471, -0.045471,0.073822, -0.002075, -0.369720,0.098114, 0.102692, -0.094391
911, 9100000.000000,-0.062317, 0.045471, -0.006409,0.073822, -0.002075, -0.369720,0.098114, 0.102692, -0.094391
912, 9110000.000000,-0.045563, -0.050934, -0.000183,0.073822, -0.002075, -0.369720,0.098114, 0.102692, -0.094391
913, 9120000.000000,-0.045563, -0.050934, -0.000183,-0.008240, -0.033325, -0.308380,0.100250, 0.104706, -0.091644
914, 9130000.000000,-0.023438, -0.056091, 0.014069,-0.008240, -0.033325, -0.308380,0.100250, 0.104706, -0.091644
915, 9140000.000000,-0.023438, -0.056091, 0.014069,-0.008240, -0.033325, -0.308380,0.100250, 0.104706, -0.091644
916, 9150000.000000,-0.023438, -0.056091, 0.020447,-0.008240, -0.033325, -0.308380,0.100250, 0.104706, -0.091644
917, 9160000.000000,0.015228, 0.052856, 0.020447,-0.008240, -0.042053, -0.322693,0.094666, 0.104126, -0.091949
918, 9170000.000000,0.015228, 0.052856, 0.020447,0.032471, -0.042053, -0.322693,0.094666, 0.104126, -0.091949
919, 9180000.000000,0.032684, 0.074005, 0.043762,0.032471, -0.042053, -0.322693,0.094666, 0.104126, -0.091949
920, 9190000.000000,0.032684, 0.074005, 0.043762,0.032471, -0.042053, -0.322693,0.094666, 0.104126, -0.091949
921, 9200000.000000,0.032684, 0.141052, 0.063507,0.032471, -0.042053, -0.322693,0.094666, 0.104126, -0.091949
922, 9210000.000000,0.036072, 0.141052, 0.063507,-0.003052, -0.054962, -0.280334,0.099213, 0.102386, -0.091248
923, 9220000.000000,0.036072, 0.141052, 0.063507,-0.003052, -0.054962, -0.280334,0.099213, 0.102386, -0.091248
924, 9230000.000000,0.019440, 0.163452, 0.062500,-0.003052, -0.054962, -0.280334,0.099213, 0.102386, -0.091248
925, 9240000.000000,0.019440, 0.163452, 0.062500,-0.003052, -0.054962, -0.280334,0.099213, 0.102386, -0.091248
926, 9250000.000000,0.029114, 0.309479, 0.078583,-0.003052, -0.031525, -0.349915,0.096039, 0.104218, -0.092590
927, 9260000.000000,0.029114, 0.309479, 0.078583,-0.065582, -0.037567, -0.349915,0.096039, 0.104218, -0.092590
928, 9270000.000000,0.029114, 0.309479, 0.078583,-0.065582, -0.037567, -0.349915,0.096039, 0.104218, -0.092590
929, 9280000.000000,-0.021545, 0.474518, 0.081421,-0.065582, -0.037567, -0.349915,0.096039, 0.104218, -0.092590
930, 9290000.000000,-0.021545, 0.474518, 0.081421,-0.065582, -0.037567, -0.349915,0.096039, 0.104218, -0.092590
931, 9300000.000000,-0.038239, 0.898468, 0.030182,-0.559357, -0.089478, -0.480377,0.088654, 0.100922, -0.094696
932, 9310000.000000,-0.038239, 0.898468, 0.030182,-0.559357, -0.089478, -0.480377,0.088654, 0.100922, -0.094696
933, 9320000.000000,-0.038239, 0.898468, 0.030182,-0.559357, -0.089478, -0.480377,0.088654, 0.100922, -0.094696
934, 9330000.000000,0.084473, 0.982849, -0.059784,-0.559357, -0.089478, -0.480377,0.088654, 0.100922, -0.094696
935, 9340000.000000,0.084473, 0.982849, -0.059784,-0.559357, -0.081665, -0.724823,0.063080, 0.103882, -0.095276
936, 9350000.000000,0.665222, 0.989258, -0.352661,-0.390930, -0.082550, -0.724823,0.063080, 0.103882, -0.095276
937, 9360000.000000,0.665222, 0.989258, -0.352661,-0.390930, -0.082550, -0.724823,0.063080, 0.103882, -0.095276
938, 9370000.000000,0.917969, 0.989258, -0.587189,-0.390930, -0.082550, -0.724823,0.063080, 0.103882, -0.095276
939, 9380000.000000,0.917969, 0.989258, -0.587189,-0.390930, -0.178345, 0.064575,0.034821, 0.106628, -0.079193
940, 9390000.000000,0.896973, 0.989258, -0.799500,-0.325745, -0.178345, 0.064575,0.034821, 0.106628, -0.079193
941, 9400000.000000,0.896973, 0.989258, -0.799500,-0.325745, -0.178345, 0.064575,0.034821, 0.106628, -0.079193
942, 9410000.000000,0.896973, 0.989258, -0.799500,-0.325745, -0.178345, 0.064575,0.034821, 0.106628, -0.079193
943, 9420000.000000,0.490814, 0.988525, -0.716980,-0.325745, -0.178345, 0.064575,0.034821, 0.104309, -0.049744
944, 9430000.000000,0.490814, 0.988525, -0.716980,0.869476, -0.875122, -0.869446,0.018738, 0.104309, -0.049744
945, 9440000.000000,0.339996, 0.954590, -0.086487,0.869476, -0.875122, -0.869446,0.018738, 0.104309, -0.049744
946, 9450000.000000,0.339996, 0.954590, -0.086487,0.869476, -0.875122, -0.869446,0.018738, 0.104309, -0.049744
947, 9460000.000000,0.076019, 0.952576, -0.126312,0.869476, -0.179810, -0.999756,0.008698, 0.095978, -0.027649
948, 9470000.000000,0.076019, 0.952576, -0.126312,0.017822, -0.187256, -0.999756,0.008698, 0.095978, -0.027649
949, 9480000.000000,0.012604, 0.479187, 0.002960,0.017822, -0.187256, -0.999756,0.008698, 0.095978, -0.027649
950, 9490000.000000,0.012604, 0.479187, 0.002960,0.017822, -0.187256, -0.999756,0.008698, 0.095978, -0.027649
951, 9500000.000000,-0.112396, 0.107605, -0.145660,0.017822, -0.187256, -0.656128,0.001770, 0.085052, -0.018341
952, 9510000.000000,-0.116211, 0.107605, -0.145660,-0.176666, 0.269775, -0.656128,0.001770, 0.085052, -0.018341
953, 9520000.000000,-0.116211, 0.107605, -0.387848,-0.176666, 0.269775, -0.656128,0.001770, 0.085052, -0.018341
954, 9530000.000000,-0.046021, 0.168915, -0.386536,-0.176666, 0.269775, -0.656128,0.001770, 0.085052, -0.018341
955, 9540000.000000,-0.046021, 0.168915, -0.386536,-0.176666, 0.269775, -0.469940,-0.007751, 0.073120, -0.002716
956, 9550000.000000,0.129913, 0.454742, -0.632263,-0.196564, 0.141937, -0.469940,-0.007751, 0.073120, -0.002716
957, 9560000.000000,0.129913, 0.454742, -0.632263,-0.196564, 0.141937, -0.469940,-0.007751, 0.073120, -0.002716
958, 9570000.000000,0.345215, 0.706390, -0.778137,-0.196564, 0.141937, -0.469940,-0.007751, 0.073120, -0.002716
959, 9580000.000000,0.345215, 0.706390, -0.778137,-0.196564, 0.141937, -0.469940,-0.007751, 0.049683, 0.000336
960, 9590000.000000,0.231171, 0.571503, -0.963806,-0.186768, -0.057953, -0.975891,-0.033417, 0.054169, 0.000336
961, 9600000.000000,0.231171, 0.571503, -0.963806,-0.186768, -0.057953, -0.975891,-0.033417, 0.054169, 0.000336
962, 9610000.000000,0.231171, 0.571503, -0.963806,-0.186768, -0.057953, -0.975891,-0.033417, 0.054169, 0.000336
963, 9620000.000000,0.130676, 0.287903, -0.994873,-0.186768, -0.057953, -0.975891,-0.033417, 0.054169, 0.000336
964, 9630000.000000,0.130676, 0.287903, -0.994873,-0.228699, -0.448761, -0.999695,-0.058533, 0.030945, -0.005890
965, 9640000.000000,-0.009644, -0.021820, -0.922974,-0.228699, -0.448761, -0.999695,-0.058533, 0.030945, -0.005890
966, 9650000.000000,-0.009644, -0.021820, -0.922974,-0.228699, -0.448761, -0.999695,-0.058533, 0.030945, -0.005890
967, 9660000.000000,-0.214355, -0.258575, -0.714630,-0.228699, -0.448761, -0.999695,-0.058533, 0.030945, -0.005890
968, 9670000.000000,-0.214355, -0.258575, -0.714630,-0.297455, -0.631561, -0.811218,-0.070404, 0.017731, -0.032257
969, 9680000.000000,-0.619934, -0.411469, -0.540894,-0.297455, -0.631561, -0.811218,-0.070404, 0.017731, -0.032257
970, 9690000.000000,-0.619934, -0.411469, -0.540894,-0.297455, -0.631561, -0.811218,-0.070404, 0.017731, -0.032257
971, 9700000.000000,-0.619934, -0.411469, -0.040894,-0.297455, -0.631561, -0.811218,-0.070404, 0.017731, -0.032257
972, 9710000.000000,-0.817627, -0.583130, -0.039734,-0.416626, -0.590363, -0.463989,-0.085327, 0.013092, -0.060272
973, 9720000.000000,-0.817627, -0.583130, -0.039734,-0.416626, -0.590363, -0.463989,-0.085327, 0.013092, -0.060272
974, 9730000.000000,-0.658569, -0.721222, 0.219025,-0.416626, -0.590363, -0.463989,-0.085327, 0.013092, -0.060272
975, 9740000.000000,-0.658569, -0.721222, 0.219025,-0.416626, -0.590363, -0.463989,-0.085327, 0.013092, -0.060272
976, 9750000.000000,-0.427704, -0.915985, 0.345886,-0.236816, -0.115570, -0.467834,-0.086761, 0.013641, -0.099182
977, 9760000.000000,-0.427704, -0.915985, 0.345886,-0.236816, -0.115570, -0.467834,-0.086761, 0.013641, -0.099182
978, 9770000.000000,-0.002960, -0.998718, 0.338501,-0.236816, -0.115570, -0.467834,-0.086761, 0.013641, -0.099182
979, 9780000.000000,-0.002960, -0.998718, 0.338501,-0.236816, -0.115570, -0.467834,-0.086761, 0.013641, -0.099182
980, 9790000.000000,0.372955, -1.000000, 0.272888,-0.016022, -0.029327, -0.662903,-0.073395, 0.017487, -0.133118
981, 9800000.000000,0.372955, -1.000000, 0.272888,-0.016022, -0.029327, -0.662903,-0.073395, 0.017487, -0.133118
982, 9810000.000000,0.372955, -1.000000, 0.272888,-0.016022, -0.029327, -0.662903,-0.073395, 0.017487, -0.133118
983, 9820000.000000,0.504486, -1.000000, 0.232666,-0.016022, -0.029327, -0.662903,-0.073395, 0.017487, -0.133118
984, 9830000.000000,0.504486, -1.000000, 0.232666,-0.016022, -0.029327, -0.504120,-0.039825, 0.019562, -0.165802
985, 9840000.000000,0.442932, -1.000000, 0.249176,0.228485, -0.205566, -0.504120,-0.039825, 0.019562, -0.165802
986, 9850000.000000,0.442932, -1.000000, 0.249176,0.228485, -0.205566, -0.504120,-0.039825, 0.019562, -0.165802
987, 9860000.000000,0.442932, -1.000000, 0.311676,0.228485, -0.205566, -0.504120,-0.039825, 0.019562, -0.165802
988, 9870000.000000,0.313385, -1.000000, 0.311981,0.228485, -0.205566, -0.504120,-0.039825, 0.019562, -0.165802
989, 9880000.000000,0.313385, -1.000000, 0.311981,0.264648, -0.134766, -0.214417,0.002960, 0.020599, -0.181427
990, 9890000.000000,0.239197, -1.000000, 0.362213,0.264648, -0.134766, -0.214417,0.002960, 0.020599, -0.181427
991, 9900000.000000,0.239197, -1.000000, 0.362213,0.264648, -0.134766, -0.214417,0.002960, 0.020599, -0.181427
992, 9910000.000000,0.239197, -1.000000, 0.342743,0.264648, -0.134766, -0.214417,0.002960, 0.020599, -0.181427
993, 9920000.000000,0.264343, -1.000000, 0.342743,0.264648, 0.066498, -0.441498,0.028931, 0.021729, -0.171326
994, 9930000.000000,0.264343, -1.000000, 0.268341,0.311859, 0.066498, -0.441498,0.028931, 0.021729, -0.171326
995, 9940000.000000,0.351959, -1.000000, 0.268341,0.311859, 0.066498, -0.441498,0.028931, 0.021729, -0.171326
996, 9950000.000000,0.351959, -1.000000, 0.180176,0.311859, 0.066498, -0.441498,0.028931, 0.021729, -0.171326
997, 9960000.000000,0.430481, -1.000000, 0.180176,0.370514, 0.068207, -0.463623,0.045288, 0.034088, -0.178284
998, 9970000.000000,0.430481, -1.000000, 0.180176,0.370514, 0.068207, -0.463623,0.045288, 0.034088, -0.178284
999, 9980000.000000,0.482758, -1.000000, 0.114014,0.370514, 0.068207, -0.463623,0.045288, 0.034088, -0.178284
1000, 9990000.000000,0.482758, -1.000000, 0.114014,0.370514, 0.068207, -0.463623,0.045288, 0.034088, -0.178284
1001, 10000000.000000,0.497925, -1.000000, 0.091949,0.370514, -0.041077, -0.540833,0.066132, 0.052582, -0.187866
1002, 10010000.000000,0.497925, -1.000000, 0.091949,0.396271, -0.041077, -0.540833,0.066132, 0.052582, -0.187866
1003, 10020000.000000,0.497925, -1.000000, 0.135406,0.396271, -0.041077, -0.540833,0.066132, 0.052582, -0.187866
1004, 10030000.000000,0.489685, -1.000000, 0.135406,0.396271, -0.041077, -0.540833,0.066132, 0.052582, -0.187866
1005, 10040000.000000,0.489685, -1.000000, 0.135406,0.396271, -0.041077, -0.540833,0.089569, 0.063751, -0.186554
1006, 10050000.000000,0.478271, -1.000000, 0.248291,0.523193, -0.157562, -0.793518,0.093719, 0.063751, -0.186554
1007, 10060000.000000,0.478271, -1.000000, 0.248291,0.523193, -0.157562, -0.793518,0.093719, 0.063751, -0.186554
1008, 10070000.000000,0.428223, -1.000000, 0.385986,0.523193, -0.157562, -0.793518,0.093719, 0.063751, -0.186554
1009, 10080000.000000,0.428223, -1.000000, 0.385986,0.523193, -0.157562, -0.793518,0.093719, 0.063751, -0.186554
1010, 10090000.000000,0.428223, -1.000000, 0.510986,0.699402, -0.234436, -0.974274,0.123291, 0.068787, -0.179749
1011, 10100000.000000,0.327026, -1.000000, 0.513000,0.699402, -0.234436, -0.974274,0.123291, 0.068787, -0.179749
1012, 10110000.000000,0.327026, -1.000000, 0.513000,0.699402, -0.234436, -0.974274,0.123291, 0.068787, -0.179749
1013, 10120000.000000,0.220062, -1.000000, 0.599274,0.699402, -0.234436, -0.974274,0.123291, 0.068787, -0.179749
1014, 10130000.000000,0.220062, -1.000000, 0.599274,0.699402, -0.234436, -0.631958,0.147858, 0.071503, -0.167755
1015, 10140000.000000,0.220062, -1.000000, 0.592102,0.999756, 0.007080, -0.631958,0.147858, 0.071503, -0.167755
1016, 10150000.000000,0.266968, -1.000000, 0.592102,0.999756, 0.007080, -0.631958,0.147858, 0.071503, -0.167755
1017, 10160000.000000,0.266968, -1.000000, 0.592102,0.999756, 0.007080, -0.631958,0.147858, 0.071503, -0.167755
1018, 10170000.000000,0.430695, 0.642365, -0.161835,0.747284, 0.001434, 0.293579,0.169220, 0.113312, -0.168854
1019, 10180000.000000,0.430695, 0.642365, -0.161835,0.747284, 0.001434, 0.293579,0.169220, 0.113312, -0.168854
1020, 10190000.000000,0.454254, 0.886627, -0.187988,0.747284, 0.001434, 0.293579,0.169220, 0.113312, -0.168854
1021, 10200000.000000,0.454254, 0.886627, -0.187988,0.747284, 0.001434, 0.293579,0.169220, 0.113312, -0.168854
1022, 10210000.000000,0.454254, 0.886627, -0.187988,0.723236, 0.954224, 0.821594,0.120575, 0.134125, -0.210449
1023, 10220000.000000,0.581360, 0.988708, -0.722229,0.723236, 0.954224, 0.821594,0.120575, 0.134125, -0.210449
1024, 10230000.000000,0.581360, 0.988708, -0.722229,0.723236, 0.954224, 0.821594,0.120575, 0.134125, -0.210449
1025, 10240000.000000,-0.660339, 0.908813, -0.461304,0.723236, 0.954224, 0.821594,0.120575, 0.134125, -0.210449
1026, 10250000.000000,-0.660339, 0.908813, -0.461304,0.723236, 0.877441, 0.119202,0.087616, 0.078247, -0.233185
1027, 10260000.000000,0.222565, 0.447845, 0.024658,0.193909, 0.877441, 0.119202,0.087616, 0.078247, -0.233185
1028, 10270000.000000,0.222565, 0.447845, 0.024658,0.193909, 0.877441, 0.119202,0.087616, 0.078247, -0.233185
1029, 10280000.000000,-0.336029, 0.266663, -0.391113,0.193909, 0.877441, 0.119202,0.087616, 0.078247, -0.233185
1030, 10290000.000000,-0.336029, 0.266663, -0.391113,-0.173279, 0.481232, -0.061249,0.082550, 0.060486, -0.220581
1031, 10300000.000000,-0.336029, 0.266663, -0.391113,-0.173126, 0.481232, -0.061249,0.082550, 0.060486, -0.220581
1032, 10310000.000000,-0.272186, -0.054047, 0.199677,-0.173126, 0.481232, -0.061249,0.082550, 0.060486, -0.220581
1033, 10320000.000000,-0.272186, -0.054047, 0.199677,-0.173126, 0.481232, -0.061249,0.082550, 0.060486, -0.220581
1034, 10330000.000000,-0.065033, -0.019043, -0.116516,-0.173126, 0.481232, -0.061249,0.086151, 0.060272, -0.228577
1035, 10340000.000000,-0.065033, -0.019043, -0.116516,0.088684, 0.245911, -0.348480,0.086151, 0.060272, -0.228577
1036, 10350000.000000,-0.026459, -0.005859, -0.007629,0.088684, 0.245911, -0.348480,0.086151, 0.060272, -0.228577
1037, 10360000.000000,-0.026459, -0.005859, -0.007629,0.088684, 0.245911, -0.348480,0.086151, 0.060272, -0.228577
1038, 10370000.000000,-0.016876, 0.011566, 0.007355,-0.012695, -0.047699, -0.268921,0.087402, 0.060974, -0.228333
1039, 10380000.000000,-0.016876, 0.011566, 0.007355,-0.012695, -0.047699, -0.268921,0.087402, 0.060974, -0.228333
1040, 10390000.000000,-0.031097, -0.003174, 0.023407,-0.012695, -0.047699, -0.268921,0.087402, 0.060974, -0.228333
1041, 10400000.000000,-0.031097, -0.003174, 0.023407,-0.012695, -0.047699, -0.268921,0.087402, 0.060974, -0.228333
1042, 10410000.000000,-0.031097, -0.003174, 0.023407,-0.012695, -0.047699, -0.249298,0.085388, 0.060638, -0.228760
1043, 10420000.000000,0.006958, 0.036591, 0.052643,0.005219, -0.039917, -0.249298,0.085388, 0.060638, -0.228760
1044, 10430000.000000,0.006958, 0.036591, 0.027222,0.005219, -0.039917, -0.249298,0.085388, 0.060638, -0.228760
1045, 10440000.000000,0.021179, 0.076416, 0.027222,0.005219, -0.039917, -0.249298,0.085388, 0.060638, -0.228760
1046, 10450000.000000,0.026367, 0.075134, 0.056702,0.000397, -0.003113, -0.256866,0.078766, 0.062073, -0.226288
1047, 10460000.000000,0.026367, 0.075134, 0.056702,0.000397, -0.003113, -0.256866,0.078766, 0.062073, -0.226288
1048, 10470000.000000,0.024017, 0.104431, 0.063843,0.000397, -0.003113, -0.256866,0.078766, 0.062073, -0.226288
1049, 10480000.000000,0.024017, 0.104431, 0.063843,0.000397, -0.003113, -0.256866,0.078766, 0.062073, -0.224792
1050, 10490000.000000,0.024017, 0.104431, 0.063843,-0.038483, 0.019318, -0.242371,0.078552, 0.061127, -0.224792
1051, 10500000.000000,0.043304, 0.233368, 0.160400,-0.038483, 0.019318, -0.242371,0.078552, 0.061127, -0.224792
1052, 10510000.000000,0.043304, 0.233368, 0.160400,-0.038483, 0.019318, -0.242371,0.078552, 0.061127, -0.224792
1053, 10520000.000000,0.052551, 0.488373, 0.124420,-0.038483, 0.019318, -0.242371,0.078552, 0.061127, -0.224792
1054, 10530000.000000,0.052551, 0.488373, 0.124420,-0.222961, -0.028534, -0.361237,0.063629, 0.062134, -0.230225
1055, 10540000.000000,0.052551, 0.488373, 0.077545,-0.222961, -0.028534, -0.361237,0.063629, 0.062134, -0.230225
1056, 10550000.000000,0.122345, 0.796753, 0.072784,-0.222961, -0.028534, -0.361237,0.063629, 0.062134, -0.230225
1057, 10560000.000000,0.122345, 0.796753, 0.072784,-0.222961, -0.028534, -0.361237,0.063629, 0.062134, -0.230225
1058, 10570000.000000,0.488403, 0.983704, -0.012360,-0.222961, -0.028534, -0.361237,0.063629, 0.062134, -0.238037
1059, 10580000.000000,0.488403, 0.983704, -0.012360,-0.498932, 0.051361, -0.824280,0.021484, 0.078400, -0.239380
1060, 10590000.000000,0.488403, 0.983704, -0.260406,-0.498932, 0.051361, -0.824280,0.021484, 0.078400, -0.239380
1061, 10600000.000000,0.968018, 0.989258, -0.260406,-0.498932, 0.051361, -0.824280,0.021484, 0.078400, -0.239380
1062, 10610000.000000,0.968018, 0.989258, -0.260406,-0.498932, 0.051361, -0.824280,0.021484, 0.078400, -0.239380
1063, 10620000.000000,0.993652, 0.989258, -0.435272,-0.318298, -0.041138, -0.196075,-0.049927, 0.092529, -0.213440
1064, 10630000.000000,0.993652, 0.989258, -0.435272,-0.318298, -0.041138, -0.196075,-0.049927, 0.092529, -0.213440
1065, 10640000.000000,0.993652, 0.989258, -0.651337,-0.318298, -0.041138, -0.196075,-0.049927, 0.092529, -0.213440
1066, 10650000.000000,0.993652, 0.989258, -0.651337,-0.318298, -0.041138, -0.196075,-0.049927, 0.092529, -0.213440
1067, 10660000.000000,0.907715, 0.971161, -0.821198,0.892639, -0.580963, -0.676117,-0.101318, 0.088562, -0.165833
1068, 10670000.000000,0.910309, 0.971161, -0.821198,0.891907, -0.580963, -0.676117,-0.101318, 0.088562, -0.165833
1069, 10680000.000000,0.401215, 0.956390, -0.741364,0.891907, -0.580963, -0.676117,-0.101318, 0.088562, -0.165833
1070, 10690000.000000,0.401215, 0.956390, -0.741364,0.891907, -0.580963, -0.676117,-0.101318, 0.088562, -0.165833
1071, 10700000.000000,0.401215, 0.956390, -0.741364,-0.124847, -0.361115, -0.999756,-0.112854, 0.078918, -0.149658
1072, 10710000.000000,0.461426, 0.820587, -0.619873,-0.124847, -0.361115, -0.999756,-0.112854, 0.078918, -0.149658
