Index,Time(us), GyroX , GyroY , GyroZ ,AccX , AccY , AccZ , MagX , MagY , MagZ
1, 0.000000,-0.000488, 0.009155, -0.017426,-0.013641, -0.019409, -0.254059,0.113190, 0.099609, -0.115723
2, 10000.000000,-0.000488, 0.009155, -0.017426,-0.012726, -0.018829, -0.254059,0.113190, 0.099609, -0.115723
3, 20000.000000,-0.001678, 0.007263, -0.017303,-0.012726, -0.018829, -0.254059,0.113190, 0.099609, -0.115723
4, 30000.000000,-0.001678, 0.007263, -0.017303,-0.012726, -0.018829, -0.254059,0.113190, 0.099609, -0.115723
5, 40000.000000,-0.000427, 0.009247, -0.016907,-0.012665, -0.019440, -0.254089,0.113647, 0.099518, -0.113464
6, 50000.000000,-0.000427, 0.009247, -0.016907,-0.012665, -0.019440, -0.254089,0.113647, 0.099518, -0.113464
7, 60000.000000,-0.000427, 0.009247, -0.016479,-0.012665, -0.019440, -0.254089,0.113647, 0.099518, -0.113464
8, 70000.000000,-0.001617, 0.010315, -0.016479,-0.012665, -0.019440, -0.254089,0.113647, 0.099518, -0.113464
9, 80000.000000,-0.001617, 0.010315, -0.016479,-0.012665, -0.019440, -0.254089,0.113647, 0.099518, -0.115143
10, 90000.000000,-0.000397, 0.009094, -0.016418,-0.012756, -0.019226, -0.258087,0.118652, 0.096802, -0.115143
11, 100000.000000,-0.000397, 0.009094, -0.016418,-0.012756, -0.019226, -0.258087,0.118652, 0.096802, -0.115143
12, 110000.000000,0.007416, 0.008392, -0.016327,-0.012756, -0.019226, -0.258087,0.118652, 0.096802, -0.115143
13, 120000.000000,0.001007, 0.008392, -0.016327,-0.012756, -0.019226, -0.258087,0.118652, 0.096802, -0.115143
14, 130000.000000,0.001007, 0.008392, -0.016327,-0.012329, -0.019318, -0.253998,0.119141, 0.098328, -0.111969
15, 140000.000000,-0.000641, 0.008575, -0.016296,-0.012329, -0.019318, -0.253998,0.119141, 0.098328, -0.111969
16, 150000.000000,-0.000641, 0.008575, -0.016296,-0.012329, -0.019318, -0.253998,0.119141, 0.098328, -0.111969
17, 160000.000000,-0.001648, 0.007843, -0.016602,-0.012329, -0.019318, -0.253998,0.119141, 0.098328, -0.111969
18, 170000.000000,-0.001648, 0.007843, -0.016602,-0.012329, -0.019318, -0.253998,0.111328, 0.098541, -0.106171
19, 180000.000000,-0.001648, 0.007843, -0.016602,-0.012268, -0.020233, -0.250671,0.110931, 0.098541, -0.106171
20, 190000.000000,-0.001038, 0.008453, -0.017303,-0.012268, -0.020233, -0.250671,0.110931, 0.098541, -0.106171
21, 200000.000000,-0.001038, 0.008453, -0.017303,-0.012268, -0.020233, -0.250671,0.110931, 0.098541, -0.106171
22, 210000.000000,0.000427, 0.008331, -0.018127,-0.012268, -0.020233, -0.250671,0.110931, 0.098541, -0.106171
23, 220000.000000,0.000427, 0.008331, -0.018127,-0.014374, -0.020691, -0.255859,0.114929, 0.098816, -0.111938
24, 230000.000000,0.000427, 0.008331, -0.017578,-0.014374, -0.020691, -0.255859,0.114929, 0.098816, -0.111938
25, 240000.000000,-0.000580, 0.008148, -0.017578,-0.014374, -0.020691, -0.255859,0.114929, 0.098816, -0.111938
26, 250000.000000,-0.000580, 0.008148, -0.017578,-0.014374, -0.020691, -0.255859,0.114929, 0.098816, -0.111938
27, 260000.000000,-0.002319, 0.007172, -0.018097,-0.014374, -0.020691, -0.255859,0.122742, 0.098877, -0.111481
28, 270000.000000,-0.002319, 0.007172, -0.018097,-0.013611, -0.019592, -0.256622,0.118896, 0.098877, -0.111481
29, 280000.000000,-0.002319, 0.007172, -0.017426,-0.013611, -0.019592, -0.256622,0.118896, 0.098877, -0.111481
30, 290000.000000,-0.001709, 0.008636, -0.017426,-0.013611, -0.019592, -0.256622,0.118896, 0.098877, -0.111481
31, 300000.000000,-0.001709, 0.008636, -0.017426,-0.013611, -0.019592, -0.256622,0.118896, 0.098877, -0.111481
32, 310000.000000,-0.000244, 0.008484, -0.018097,-0.013000, -0.020447, -0.256409,0.117798, 0.098663, -0.111389
33, 320000.000000,-0.000244, 0.008484, -0.018097,-0.013000, -0.020447, -0.256409,0.117798, 0.098663, -0.111389
34, 330000.000000,-0.000244, 0.009064, -0.017365,-0.013000, -0.020447, -0.256409,0.117798, 0.098663, -0.111389
35, 340000.000000,-0.000702, 0.009064, -0.017365,-0.013000, -0.020447, -0.256409,0.117798, 0.098663, -0.111389
36, 350000.000000,-0.000702, 0.009064, -0.017365,-0.013000, -0.020447, -0.256409,0.117798, 0.096497, -0.109192
37, 360000.000000,-0.001312, 0.008545, -0.017578,-0.013763, -0.020416, -0.255066,0.121277, 0.096497, -0.109192
38, 370000.000000,-0.001312, 0.008545, -0.017578,-0.013763, -0.020416, -0.255066,0.121277, 0.096497, -0.109192
39, 380000.000000,-0.002319, 0.007965, -0.018280,-0.013763, -0.020416, -0.255066,0.121277, 0.096497, -0.109192
40, 390000.000000,-0.002319, 0.007965, -0.018280,-0.013763, -0.020416, -0.255066,0.121277, 0.096497, -0.109192
41, 400000.000000,-0.002319, 0.007965, -0.017700,-0.013123, -0.018707, -0.254272,0.119385, 0.097931, -0.110962
42, 410000.000000,-0.001434, 0.008270, -0.017700,-0.013123, -0.018707, -0.254272,0.119385, 0.097931, -0.110962
43, 420000.000000,-0.001434, 0.008270, -0.017700,-0.013123, -0.018707, -0.254272,0.119385, 0.097931, -0.110962
44, 430000.000000,-0.001373, 0.009796, -0.017700,-0.013123, -0.018707, -0.254272,0.119385, 0.097931, -0.110962
45, 440000.000000,-0.001373, 0.009796, -0.017700,-0.013123, -0.018707, -0.255585,0.116974, 0.099670, -0.115692
46, 450000.000000,-0.001373, 0.009796, -0.017365,-0.013855, -0.019257, -0.255585,0.116974, 0.099670, -0.115692
47, 460000.000000,-0.000427, 0.008881, -0.017365,-0.013855, -0.019257, -0.255585,0.116974, 0.099670, -0.115692
48, 470000.000000,-0.000427, 0.008881, -0.017365,-0.013855, -0.019257, -0.255585,0.116974, 0.099670, -0.115692
49, 480000.000000,-0.001099, 0.008850, -0.016937,-0.013855, -0.019257, -0.255585,0.116974, 0.099670, -0.115692
50, 490000.000000,-0.001099, 0.008850, -0.016937,-0.013916, -0.019348, -0.254333,0.118286, 0.099854, -0.110535
51, 500000.000000,-0.001099, 0.009033, -0.017914,-0.013916, -0.019348, -0.254333,0.118286, 0.099854, -0.110535
52, 510000.000000,-0.001129, 0.009033, -0.017914,-0.013916, -0.019348, -0.254333,0.118286, 0.099854, -0.110535
53, 520000.000000,-0.001129, 0.009033, -0.017914,-0.013916, -0.019348, -0.254333,0.118286, 0.099854, -0.110535
54, 530000.000000,-0.000854, 0.009033, -0.018005,-0.013916, -0.019348, -0.252441,0.118958, 0.098907, -0.107422
55, 540000.000000,-0.000854, 0.009033, -0.018005,-0.013550, -0.019531, -0.252441,0.118958, 0.098907, -0.107422
56, 550000.000000,-0.000183, 0.009338, -0.016815,-0.013550, -0.019531, -0.252441,0.118958, 0.098907, -0.107422
57, 560000.000000,-0.000183, 0.009338, -0.016815,-0.013550, -0.019531, -0.252441,0.118958, 0.098907, -0.107422
58, 570000.000000,-0.000183, 0.009338, -0.016815,-0.013550, -0.019531, -0.252441,0.118958, 0.098907, -0.107422
59, 580000.000000,-0.000854, 0.008362, -0.016907,-0.011108, -0.020966, -0.256256,0.118774, 0.099518, -0.110382
60, 590000.000000,-0.000854, 0.008362, -0.016907,-0.011108, -0.020966, -0.256256,0.118774, 0.099518, -0.110382
61, 600000.000000,-0.001556, 0.007721, -0.017578,-0.011108, -0.020966, -0.256256,0.118774, 0.099518, -0.110382
62, 610000.000000,-0.001556, 0.007721, -0.017578,-0.011108, -0.020966, -0.256256,0.118774, 0.099518, -0.110382
63, 620000.000000,-0.000336, 0.008911, -0.017639,-0.011353, -0.021576, -0.256561,0.116272, 0.094604, -0.107880
64, 630000.000000,-0.000336, 0.008911, -0.017639,-0.011353, -0.021576, -0.256561,0.116272, 0.094604, -0.107880
65, 640000.000000,-0.000336, 0.007477, -0.017090,-0.011353, -0.021576, -0.256561,0.116272, 0.094604, -0.107880
66, 650000.000000,-0.001770, 0.007477, -0.017090,-0.011353, -0.021576, -0.256561,0.116272, 0.094604, -0.107880
67, 660000.000000,-0.001770, 0.007477, -0.017090,-0.013062, -0.020935, -0.258240,0.116760, 0.099915, -0.112671
68, 670000.000000,0.001404, 0.008789, -0.017731,-0.013062, -0.020935, -0.258240,0.116760, 0.099915, -0.112671
69, 680000.000000,0.001404, 0.008789, -0.017731,-0.013062, -0.020935, -0.258240,0.116760, 0.099915, -0.112671
70, 690000.000000,-0.000793, 0.009583, -0.016907,-0.013062, -0.020935, -0.258240,0.116760, 0.099915, -0.112671
71, 700000.000000,-0.000793, 0.009583, -0.016907,-0.013062, -0.020935, -0.258240,0.116760, 0.094910, -0.109131
72, 710000.000000,-0.000793, 0.009583, -0.016907,-0.012543, -0.020538, -0.256287,0.114349, 0.094910, -0.109131
73, 720000.000000,-0.002106, 0.009186, -0.017181,-0.012543, -0.020538, -0.256287,0.114349, 0.094910, -0.109131
74, 730000.000000,-0.002106, 0.009186, -0.017181,-0.012543, -0.020538, -0.256287,0.114349, 0.094910, -0.109131
75, 740000.000000,-0.001465, 0.008698, -0.017517,-0.012543, -0.020538, -0.256287,0.114349, 0.094910, -0.109131
76, 750000.000000,-0.001465, 0.008698, -0.017517,-0.012726, -0.019928, -0.256592,0.110321, 0.098114, -0.110718
77, 760000.000000,-0.001465, 0.008698, -0.018463,-0.012726, -0.019928, -0.256592,0.110321, 0.098114, -0.110718
78, 770000.000000,-0.001740, 0.009094, -0.018463,-0.012726, -0.019928, -0.256592,0.110321, 0.098114, -0.110718
79, 780000.000000,-0.001740, 0.009094, -0.018463,-0.012726, -0.019928, -0.256592,0.110321, 0.098114, -0.110718
80, 790000.000000,-0.001282, 0.009125, -0.017700,-0.012726, -0.019928, -0.256592,0.110321, 0.098267, -0.109863
81, 800000.000000,-0.001282, 0.009125, -0.017700,-0.011871, -0.019165, -0.257507,0.113892, 0.098267, -0.109863
82, 810000.000000,0.006531, 0.007843, -0.017303,-0.011871, -0.019165, -0.257507,0.113892, 0.098267, -0.109863
83, 820000.000000,0.000549, 0.007843, -0.017303,-0.011871, -0.019165, -0.257507,0.113892, 0.098267, -0.109863
84, 830000.000000,0.000549, 0.000031, -0.017242,-0.011871, -0.019165, -0.257507,0.113892, 0.098267, -0.113556
85, 840000.000000,-0.001709, 0.007629, -0.017242,-0.013153, -0.019531, -0.254944,0.117157, 0.098663, -0.113556
86, 850000.000000,-0.001709, 0.007629, -0.017242,-0.013153, -0.019531, -0.254944,0.117157, 0.098663, -0.113556
87, 860000.000000,-0.002533, 0.009705, -0.016968,-0.013153, -0.019531, -0.254944,0.117157, 0.098663, -0.113556
88, 870000.000000,-0.002533, 0.009705, -0.016968,-0.013153, -0.019531, -0.254944,0.117157, 0.098663, -0.113556
89, 880000.000000,-0.002533, 0.008759, -0.017151,-0.012482, -0.019501, -0.252960,0.117035, 0.098297, -0.113922
90, 890000.000000,-0.000671, 0.008759, -0.017151,-0.012482, -0.019501, -0.252960,0.117035, 0.098297, -0.113922
91, 900000.000000,-0.000671, 0.008759, -0.017151,-0.012482, -0.019501, -0.252960,0.117035, 0.098297, -0.113922
92, 910000.000000,0.000488, 0.008453, -0.016449,-0.012482, -0.019501, -0.252960,0.117035, 0.098297, -0.113922
93, 920000.000000,0.000488, 0.008453, -0.016449,-0.012482, -0.019501, -0.252960,0.117035, 0.098297, -0.116150
94, 930000.000000,-0.001221, 0.009277, -0.015991,-0.015015, -0.019379, -0.255554,0.113831, 0.097626, -0.116150
95, 940000.000000,-0.001221, 0.009277, -0.015991,-0.015015, -0.019379, -0.255554,0.113831, 0.097626, -0.116150
96, 950000.000000,-0.001221, 0.009277, -0.015991,-0.015015, -0.019379, -0.255554,0.113831, 0.097626, -0.116150
97, 960000.000000,0.000702, 0.008881, -0.016907,-0.015015, -0.019379, -0.255554,0.113831, 0.097626, -0.116150
98, 970000.000000,0.000702, 0.008881, -0.016907,-0.012085, -0.018677, -0.253876,0.116638, 0.098785, -0.111267
99, 980000.000000,-0.002136, 0.010864, -0.016479,-0.012085, -0.018677, -0.253876,0.116638, 0.098785, -0.111267
100, 990000.000000,-0.002136, 0.010864, -0.016479,-0.012085, -0.018677, -0.253876,0.116638, 0.098785, -0.111267
101, 1000000.000000,-0.002136, 0.010864, -0.016479,-0.012085, -0.018677, -0.253876,0.116638, 0.098785, -0.111267
102, 1010000.000000,-0.000977, 0.009094, -0.017792,-0.012085, -0.018677, -0.253876,0.116638, 0.098785, -0.103455
103, 1020000.000000,-0.000977, 0.009094, -0.017792,-0.012177, -0.020081, -0.253357,0.120911, 0.096436, -0.107056
104, 1030000.000000,-0.001862, 0.009155, -0.017395,-0.012177, -0.020081, -0.253357,0.120911, 0.096436, -0.107056
105, 1040000.000000,-0.001862, 0.009155, -0.017395,-0.012177, -0.020081, -0.253357,0.120911, 0.096436, -0.107056
106, 1050000.000000,-0.001862, 0.009155, -0.017395,-0.012177, -0.020081, -0.253357,0.120911, 0.096436, -0.107056
107, 1060000.000000,-0.000763, 0.009308, -0.016815,-0.011780, -0.020020, -0.257904,0.117157, 0.099396, -0.111084
108, 1070000.000000,-0.000763, 0.009308, -0.016815,-0.011780, -0.020020, -0.257904,0.117157, 0.099396, -0.111084
109, 1080000.000000,-0.001740, 0.009277, -0.017059,-0.011780, -0.020020, -0.257904,0.117157, 0.099396, -0.111084
110, 1090000.000000,-0.001740, 0.009277, -0.017059,-0.011780, -0.020020, -0.257904,0.117157, 0.099396, -0.111084
111, 1100000.000000,-0.001678, 0.007812, -0.017242,-0.011780, -0.020020, -0.257904,0.117157, 0.098328, -0.107697
112, 1110000.000000,-0.001678, 0.007812, -0.017242,-0.012604, -0.019104, -0.253998,0.116547, 0.098328, -0.107697
113, 1120000.000000,-0.001678, 0.007812, -0.017242,-0.012604, -0.019104, -0.253998,0.116547, 0.098328, -0.107697
114, 1130000.000000,-0.000977, 0.007782, -0.017700,-0.012604, -0.019104, -0.253998,0.116547, 0.098328, -0.107697
115, 1140000.000000,-0.000977, 0.007782, -0.017700,-0.012604, -0.019104, -0.253998,0.116547, 0.098328, -0.107697
116, 1150000.000000,-0.002869, 0.007660, -0.018036,-0.013092, -0.018738, -0.255127,0.116821, 0.098297, -0.113800
117, 1160000.000000,-0.002869, 0.007660, -0.018036,-0.013092, -0.018738, -0.255127,0.116821, 0.098297, -0.113800
118, 1170000.000000,-0.002869, 0.007660, -0.018036,-0.013092, -0.018738, -0.255127,0.116821, 0.098297, -0.113800
119, 1180000.000000,-0.001862, 0.007538, -0.017426,-0.013092, -0.018738, -0.255127,0.116821, 0.098297, -0.113800
120, 1190000.000000,-0.001862, 0.007538, -0.017426,-0.013092, -0.018738, -0.255127,0.116821, 0.098297, -0.113647
121, 1200000.000000,-0.001770, 0.010254, -0.017487,-0.012451, -0.019043, -0.254822,0.118500, 0.098175, -0.113647
122, 1210000.000000,-0.001770, 0.010254, -0.017487,-0.012451, -0.019043, -0.254822,0.118500, 0.098175, -0.113647
123, 1220000.000000,-0.001770, 0.010254, -0.017487,-0.012451, -0.019043, -0.254822,0.118500, 0.098175, -0.113647
124, 1230000.000000,0.000763, 0.010864, -0.017365,-0.012451, -0.019043, -0.254822,0.118500, 0.098175, -0.113647
125, 1240000.000000,0.000763, 0.010864, -0.017365,-0.013214, -0.018921, -0.253540,0.116730, 0.097687, -0.107452
126, 1250000.000000,-0.000519, 0.009613, -0.017548,-0.013214, -0.018921, -0.253540,0.116730, 0.097687, -0.107452
127, 1260000.000000,-0.000519, 0.009613, -0.017548,-0.013214, -0.018921, -0.253540,0.116730, 0.097687, -0.107452
128, 1270000.000000,0.000885, 0.009369, -0.016815,-0.013214, -0.018921, -0.253540,0.116730, 0.097687, -0.107452
129, 1280000.000000,0.000885, 0.009369, -0.016815,-0.014343, -0.019440, -0.256317,0.117615, 0.098572, -0.113220
130, 1290000.000000,0.000885, 0.009369, -0.016815,-0.014343, -0.019440, -0.256317,0.117615, 0.098572, -0.113220
131, 1300000.000000,0.000031, 0.008362, -0.017212,-0.014343, -0.019440, -0.256317,0.117615, 0.098572, -0.113220
132, 1310000.000000,0.000031, 0.008362, -0.017212,-0.014343, -0.019440, -0.256317,0.117615, 0.098572, -0.113220
133, 1320000.000000,-0.001221, 0.008759, -0.017822,-0.014343, -0.019440, -0.256317,0.117615, 0.098572, -0.113220
134, 1330000.000000,-0.001221, 0.008759, -0.017822,-0.013245, -0.020020, -0.254761,0.117706, 0.098053, -0.112000
135, 1340000.000000,-0.001221, 0.008759, -0.018341,-0.013245, -0.020020, -0.254761,0.117706, 0.098053, -0.112000
136, 1350000.000000,-0.001648, 0.009125, -0.018341,-0.013245, -0.020020, -0.254761,0.117706, 0.098053, -0.112000
137, 1360000.000000,-0.001648, 0.009125, -0.018341,-0.013245, -0.020020, -0.254761,0.117706, 0.098053, -0.112000
138, 1370000.000000,-0.000854, 0.009613, -0.017426,-0.013702, -0.019470, -0.253265,0.119629, 0.099396, -0.114044
139, 1380000.000000,-0.000854, 0.009613, -0.017426,-0.013702, -0.019470, -0.253265,0.119629, 0.099396, -0.114044
140, 1390000.000000,-0.000854, 0.009613, -0.016632,-0.013702, -0.019470, -0.253265,0.119629, 0.099396, -0.114044
141, 1400000.000000,-0.001221, 0.008759, -0.016632,-0.013702, -0.019470, -0.253265,0.119629, 0.099396, -0.114044
142, 1410000.000000,-0.001221, 0.008759, -0.016632,-0.013702, -0.019470, -0.255859,0.112030, 0.093384, -0.101990
143, 1420000.000000,-0.001617, 0.008728, -0.018219,-0.013062, -0.020172, -0.255859,0.112030, 0.093384, -0.101990
144, 1430000.000000,-0.001617, 0.008728, -0.018219,-0.013062, -0.020172, -0.255859,0.112030, 0.093384, -0.101990
145, 1440000.000000,-0.001587, 0.008636, -0.016998,-0.013062, -0.020172, -0.255859,0.112030, 0.093384, -0.101990
146, 1450000.000000,-0.001587, 0.008636, -0.016998,-0.013062, -0.020172, -0.255859,0.112030, 0.093384, -0.101990
147, 1460000.000000,-0.000427, 0.008698, -0.017242,-0.012299, -0.020355, -0.254547,0.117493, 0.099518, -0.116608
148, 1470000.000000,-0.000427, 0.008698, -0.017242,-0.012299, -0.020355, -0.254547,0.117493, 0.099518, -0.116608
149, 1480000.000000,-0.001343, 0.008057, -0.017609,-0.012299, -0.020355, -0.254547,0.117493, 0.099518, -0.116608
150, 1490000.000000,-0.001343, 0.008057, -0.017609,-0.012299, -0.020355, -0.254547,0.117493, 0.099518, -0.106689
151, 1500000.000000,-0.001343, 0.008057, -0.017670,-0.013550, -0.019501, -0.259308,0.117004, 0.098114, -0.106689
152, 1510000.000000,-0.000275, 0.009705, -0.017670,-0.013550, -0.019501, -0.259308,0.117004, 0.098114, -0.106689
153, 1520000.000000,-0.000275, 0.009705, -0.017670,-0.013550, -0.019501, -0.259308,0.117004, 0.098114, -0.106689
154, 1530000.000000,-0.000580, 0.009155, -0.016876,-0.013550, -0.019501, -0.259308,0.117004, 0.098114, -0.106689
155, 1540000.000000,-0.000580, 0.009155, -0.016876,-0.012878, -0.020477, -0.255310,0.111664, 0.097443, -0.114929
156, 1550000.000000,-0.001099, 0.009583, -0.016968,-0.012878, -0.020477, -0.255310,0.111664, 0.097443, -0.114929
157, 1560000.000000,-0.001099, 0.009583, -0.016968,-0.012878, -0.020477, -0.255310,0.111664, 0.097443, -0.114929
158, 1570000.000000,-0.001099, 0.009583, -0.016968,-0.012878, -0.020477, -0.255310,0.111664, 0.097443, -0.114929
159, 1580000.000000,-0.000641, 0.009613, -0.017548,-0.012878, -0.020477, -0.249329,0.117615, 0.099670, -0.115387
160, 1590000.000000,-0.000641, 0.009613, -0.017548,-0.013428, -0.019257, -0.249329,0.117615, 0.099670, -0.115387
161, 1600000.000000,-0.000427, 0.009766, -0.017029,-0.013428, -0.019257, -0.249329,0.117615, 0.099670, -0.115387
162, 1610000.000000,-0.000427, 0.009766, -0.017029,-0.013428, -0.019257, -0.249329,0.117615, 0.099670, -0.115387
163, 1620000.000000,-0.000427, 0.009766, -0.017029,-0.013428, -0.019257, -0.249329,0.117615, 0.099670, -0.115387
164, 1630000.000000,-0.000977, 0.009216, -0.017334,-0.013855, -0.019897, -0.255676,0.116150, 0.099121, -0.111877
165, 1640000.000000,-0.000977, 0.009216, -0.017334,-0.013855, -0.019897, -0.255676,0.116150, 0.099121, -0.111877
166, 1650000.000000,-0.002350, 0.010590, -0.017517,-0.013855, -0.019897, -0.255676,0.116150, 0.099121, -0.111877
167, 1660000.000000,-0.002350, 0.010590, -0.017517,-0.013855, -0.019897, -0.255676,0.116150, 0.099121, -0.111877
168, 1670000.000000,-0.002350, 0.010590, -0.017517,-0.013855, -0.019897, -0.255676,0.119537, 0.099884, -0.112030
169, 1680000.000000,-0.001892, 0.010620, -0.015747,-0.012451, -0.020264, -0.253601,0.119537, 0.099884, -0.112030
170, 1690000.000000,-0.001892, 0.010620, -0.015747,-0.012451, -0.020264, -0.253601,0.119537, 0.099884, -0.112030
171, 1700000.000000,-0.000702, 0.009521, -0.016998,-0.012451, -0.020264, -0.253601,0.119537, 0.099884, -0.112030
172, 1710000.000000,-0.000702, 0.009521, -0.016998,-0.012451, -0.020264, -0.253601,0.119537, 0.099884, -0.112030
173, 1720000.000000,-0.000793, 0.008301, -0.017670,-0.011230, -0.019928, -0.253998,0.118683, 0.097931, -0.113220
174, 1730000.000000,-0.000793, 0.008301, -0.017670,-0.011230, -0.019928, -0.253998,0.118683, 0.097931, -0.113220
175, 1740000.000000,-0.000793, 0.008301, -0.017670,-0.011230, -0.019928, -0.253998,0.118683, 0.097931, -0.113220
176, 1750000.000000,-0.002808, 0.008270, -0.017822,-0.011230, -0.019928, -0.253998,0.118683, 0.097931, -0.113220
177, 1760000.000000,-0.002808, 0.008270, -0.017822,-0.011230, -0.019928, -0.253937,0.118622, 0.098724, -0.119324
178, 1770000.000000,-0.001648, 0.008636, -0.016937,-0.012878, -0.019928, -0.253937,0.118622, 0.098724, -0.119324
179, 1780000.000000,-0.001648, 0.008636, -0.016937,-0.012878, -0.019928, -0.253937,0.118622, 0.098724, -0.119324
180, 1790000.000000,-0.001648, 0.008636, -0.016937,-0.012878, -0.019928, -0.253937,0.118622, 0.098724, -0.119324
181, 1800000.000000,-0.000061, 0.009583, -0.017914,-0.012878, -0.019928, -0.253937,0.118622, 0.098724, -0.119324
182, 1810000.000000,-0.000061, 0.009583, -0.017914,-0.011200, -0.019562, -0.258057,0.114594, 0.098267, -0.111603
183, 1820000.000000,-0.000305, 0.008179, -0.018188,-0.011200, -0.019562, -0.258057,0.114594, 0.098267, -0.111603
184, 1830000.000000,-0.000305, 0.008179, -0.018188,-0.011200, -0.019562, -0.258057,0.114594, 0.098267, -0.111603
185, 1840000.000000,-0.000305, 0.008179, -0.018188,-0.011200, -0.019562, -0.258057,0.114594, 0.098267, -0.111603
186, 1850000.000000,-0.001282, 0.007843, -0.017456,-0.011200, -0.019562, -0.254425,0.113983, 0.099518, -0.107819
187, 1860000.000000,-0.001282, 0.007843, -0.017456,-0.013092, -0.020203, -0.254425,0.113983, 0.099518, -0.107819
188, 1870000.000000,-0.000183, 0.008606, -0.016357,-0.013092, -0.020203, -0.254425,0.113983, 0.099518, -0.107819
189, 1880000.000000,-0.000183, 0.008606, -0.016357,-0.013092, -0.020203, -0.254425,0.113983, 0.099518, -0.107819
190, 1890000.000000,-0.000183, 0.008606, -0.016357,-0.013092, -0.020203, -0.254425,0.113983, 0.099518, -0.107819
191, 1900000.000000,-0.001404, 0.008636, -0.017517,-0.013641, -0.019745, -0.256500,0.112610, 0.099182, -0.112274
192, 1910000.000000,-0.001404, 0.008636, -0.017517,-0.013641, -0.019745, -0.256500,0.112610, 0.099182, -0.112274
193, 1920000.000000,-0.001312, 0.007263, -0.017883,-0.013641, -0.019745, -0.256500,0.112610, 0.099182, -0.112274
194, 1930000.000000,-0.001312, 0.007263, -0.017883,-0.013641, -0.019745, -0.256500,0.112610, 0.099182, -0.112274
195, 1940000.000000,-0.001312, 0.007263, -0.017883,-0.013641, -0.019745, -0.256500,0.115662, 0.098724, -0.106873
196, 1950000.000000,-0.001038, 0.007782, -0.017853,-0.012207, -0.019989, -0.251770,0.115662, 0.098724, -0.106873
197, 1960000.000000,-0.001038, 0.007782, -0.017853,-0.012207, -0.019989, -0.251770,0.115662, 0.098724, -0.106873
198, 1970000.000000,-0.000244, 0.009491, -0.017456,-0.012207, -0.019989, -0.251770,0.115662, 0.098724, -0.106873
199, 1980000.000000,-0.000244, 0.009491, -0.017456,-0.012207, -0.019989, -0.251770,0.115662, 0.098724, -0.106873
200, 1990000.000000,-0.000244, 0.009491, -0.016998,-0.012512, -0.020081, -0.255249,0.121582, 0.100281, -0.112183
201, 2000000.000000,-0.001038, 0.009613, -0.016998,-0.012512, -0.020081, -0.255249,0.121582, 0.100281, -0.112183
202, 2010000.000000,-0.001038, 0.009613, -0.016998,-0.012512, -0.020081, -0.255249,0.121582, 0.100281, -0.112183
203, 2020000.000000,-0.001740, 0.007874, -0.016235,-0.012512, -0.020081, -0.255249,0.121582, 0.100281, -0.112183
204, 2030000.000000,-0.001740, 0.007874, -0.016235,-0.012512, -0.020081, -0.255249,0.113770, 0.098999, -0.112640
205, 2040000.000000,-0.001740, 0.008118, -0.016846,-0.013550, -0.019562, -0.255463,0.117096, 0.098999, -0.112640
206, 2050000.000000,-0.000885, 0.008118, -0.016846,-0.013550, -0.019562, -0.255463,0.117096, 0.098999, -0.112640
207, 2060000.000000,-0.000885, 0.008118, -0.016846,-0.013550, -0.019562, -0.255463,0.117096, 0.098999, -0.112640
208, 2070000.000000,-0.001343, 0.006866, -0.017426,-0.013550, -0.019562, -0.255463,0.117096, 0.098999, -0.112640
209, 2080000.000000,-0.001343, 0.006866, -0.017426,-0.014343, -0.019745, -0.252380,0.116974, 0.100067, -0.109894
210, 2090000.000000,-0.002197, 0.007568, -0.017548,-0.014343, -0.019745, -0.252380,0.116974, 0.100067, -0.109894
211, 2100000.000000,-0.002197, 0.007568, -0.017548,-0.014343, -0.019745, -0.252380,0.116974, 0.100067, -0.109894
212, 2110000.000000,-0.002197, 0.007568, -0.017548,-0.014343, -0.019745, -0.252380,0.116974, 0.100067, -0.109894
213, 2120000.000000,-0.002625, 0.007599, -0.017670,-0.014343, -0.019745, -0.252380,0.116974, 0.099670, -0.116882
214, 2130000.000000,-0.002625, 0.007599, -0.017670,-0.014008, -0.019287, -0.255493,0.116730, 0.099670, -0.116882
215, 2140000.000000,-0.001038, 0.008881, -0.018219,-0.014008, -0.019287, -0.255493,0.116730, 0.099670, -0.116882
216, 2150000.000000,-0.001038, 0.008881, -0.018219,-0.014008, -0.019287, -0.255493,0.116730, 0.099670, -0.116882
217, 2160000.000000,-0.001038, 0.008881, -0.018219,-0.014008, -0.019287, -0.255493,0.116730, 0.099670, -0.116882
218, 2170000.000000,-0.000854, 0.008759, -0.017059,-0.012695, -0.019257, -0.252960,0.120636, 0.094635, -0.109406
219, 2180000.000000,-0.000854, 0.008759, -0.017059,-0.012695, -0.019257, -0.252960,0.120636, 0.094635, -0.109406
220, 2190000.000000,-0.001343, 0.008026, -0.017059,-0.012695, -0.019257, -0.252960,0.120636, 0.094635, -0.109406
221, 2200000.000000,-0.001343, 0.008026, -0.017059,-0.012695, -0.019257, -0.252960,0.120636, 0.094635, -0.109406
222, 2210000.000000,-0.001709, 0.007568, -0.017120,-0.010620, -0.019012, -0.258759,0.116943, 0.096741, -0.114807
223, 2220000.000000,-0.001709, 0.007568, -0.017120,-0.010620, -0.019012, -0.258759,0.116943, 0.096741, -0.114807
224, 2230000.000000,-0.000427, 0.004852, -0.015717,-0.010620, -0.019012, -0.258759,0.116943, 0.096741, -0.114807
225, 2240000.000000,-0.000427, 0.004852, -0.015717,-0.010620, -0.019012, -0.258759,0.116943, 0.096741, -0.114807
226, 2250000.000000,-0.000427, 0.004852, -0.015717,-0.012573, -0.019989, -0.255035,0.119385, 0.100647, -0.110352
227, 2260000.000000,-0.005737, -0.000977, -0.013733,-0.012573, -0.019989, -0.255035,0.119385, 0.100647, -0.110352
228, 2270000.000000,-0.005737, -0.000977, -0.013733,-0.012573, -0.019989, -0.255035,0.119385, 0.100647, -0.110352
229, 2280000.000000,-0.007751, -0.001526, -0.015228,-0.012573, -0.019989, -0.255035,0.119385, 0.100647, -0.110352
230, 2290000.000000,-0.007751, -0.001526, -0.015228,-0.012573, -0.019989, -0.255035,0.119385, 0.100647, -0.110352
231, 2300000.000000,-0.007751, -0.001526, -0.015228,-0.010498, -0.020447, -0.257080,0.114716, 0.098236, -0.107513
232, 2310000.000000,-0.007996, -0.003021, -0.015594,-0.010498, -0.020447, -0.257080,0.114716, 0.098236, -0.107513
233, 2320000.000000,-0.007996, -0.003021, -0.015594,-0.010498, -0.020447, -0.257080,0.114716, 0.098236, -0.107513
234, 2330000.000000,-0.009155, -0.007690, -0.013306,-0.010498, -0.020447, -0.257080,0.114716, 0.098236, -0.107513
235, 2340000.000000,-0.009155, -0.007690, -0.013306,-0.010498, -0.020966, -0.260345,0.115570, 0.098663, -0.111816
236, 2350000.000000,-0.009155, -0.007690, -0.013794,-0.012756, -0.020966, -0.260345,0.115570, 0.098663, -0.111816
237, 2360000.000000,-0.010284, -0.008301, -0.013794,-0.012756, -0.020966, -0.260345,0.115570, 0.098663, -0.111816
238, 2370000.000000,-0.010284, -0.008301, -0.013794,-0.012756, -0.020966, -0.260345,0.115570, 0.098663, -0.111816
239, 2380000.000000,-0.016937, -0.011444, -0.013977,-0.012756, -0.020966, -0.260345,0.115570, 0.098663, -0.111816
240, 2390000.000000,-0.016937, -0.011444, -0.013977,-0.006256, -0.022766, -0.261810,0.116821, 0.099182, -0.118073
241, 2400000.000000,-0.016937, -0.018250, -0.011475,-0.006256, -0.022766, -0.261810,0.116821, 0.099182, -0.118073
242, 2410000.000000,-0.028656, -0.018250, -0.011475,-0.006256, -0.022766, -0.261810,0.116821, 0.099182, -0.118073
243, 2420000.000000,-0.028656, -0.018250, -0.011475,-0.006256, -0.022766, -0.261810,0.116821, 0.099182, -0.118073
244, 2430000.000000,-0.023529, -0.011536, -0.012238,-0.015076, -0.018799, -0.256775,0.116760, 0.095642, -0.112000
245, 2440000.000000,-0.023529, -0.011536, -0.012238,-0.015076, -0.018799, -0.256775,0.116760, 0.095642, -0.112000
246, 2450000.000000,-0.021240, -0.011444, -0.014191,-0.015076, -0.018799, -0.256775,0.116760, 0.095642, -0.112000
247, 2460000.000000,-0.021240, -0.011444, -0.014191,-0.015076, -0.018799, -0.256775,0.116760, 0.095642, -0.112000
248, 2470000.000000,-0.021240, -0.011444, -0.014191,-0.015076, -0.018799, -0.256775,0.116760, 0.095642, -0.112000
249, 2480000.000000,-0.014435, -0.013763, -0.013062,-0.015106, -0.016968, -0.255402,0.118652, 0.097107, -0.106506
250, 2490000.000000,-0.014435, -0.013763, -0.013062,-0.015106, -0.016968, -0.255402,0.118652, 0.097107, -0.106506
251, 2500000.000000,-0.014587, -0.016785, -0.012695,-0.015106, -0.016968, -0.255402,0.118652, 0.097107, -0.106506
252, 2510000.000000,-0.014587, -0.016785, -0.012695,-0.015106, -0.016968, -0.255402,0.118652, 0.097107, -0.106506
253, 2520000.000000,-0.014587, -0.016785, -0.012695,-0.015106, -0.015106, -0.256989,0.120453, 0.097931, -0.110779
254, 2530000.000000,-0.011383, -0.019501, -0.012848,-0.014832, -0.015106, -0.256989,0.120453, 0.097931, -0.110779
255, 2540000.000000,-0.011383, -0.019501, -0.012848,-0.014832, -0.015106, -0.256989,0.120453, 0.097931, -0.110779
256, 2550000.000000,-0.006927, -0.024170, -0.013611,-0.014832, -0.015106, -0.256989,0.120453, 0.097931, -0.110779
257, 2560000.000000,-0.006927, -0.024170, -0.013611,-0.014832, -0.015106, -0.256989,0.120453, 0.097931, -0.110779
258, 2570000.000000,-0.006927, -0.024170, -0.013611,-0.016266, -0.020050, -0.264252,0.118805, 0.099640, -0.109985
259, 2580000.000000,-0.009308, -0.029388, -0.012726,-0.016266, -0.020050, -0.264252,0.118805, 0.099640, -0.109985
260, 2590000.000000,-0.009308, -0.029388, -0.012726,-0.016266, -0.020050, -0.264252,0.118805, 0.099640, -0.109985
261, 2600000.000000,-0.014740, -0.033142, -0.013000,-0.016266, -0.020050, -0.264252,0.118805, 0.099640, -0.109985
262, 2610000.000000,-0.014740, -0.033142, -0.013000,-0.016266, -0.023895, -0.264954,0.120270, 0.094513, -0.114624
263, 2620000.000000,-0.014740, -0.033142, -0.013000,-0.016479, -0.023895, -0.264954,0.120270, 0.094513, -0.114624
264, 2630000.000000,-0.021057, -0.036774, -0.011322,-0.016479, -0.023895, -0.264954,0.120270, 0.094513, -0.114624
265, 2640000.000000,-0.021057, -0.036774, -0.011322,-0.016479, -0.023895, -0.264954,0.120270, 0.094513, -0.114624
266, 2650000.000000,-0.039948, -0.039398, -0.011230,-0.016479, -0.023895, -0.264954,0.120270, 0.094513, -0.114624
267, 2660000.000000,-0.039948, -0.039398, -0.011230,-0.023315, 0.002258, -0.244049,0.120605, 0.096863, -0.106232
268, 2670000.000000,-0.039948, -0.031586, -0.015381,-0.023315, 0.002258, -0.244049,0.120605, 0.096863, -0.106232
269, 2680000.000000,-0.028809, -0.034149, -0.015381,-0.023315, 0.002258, -0.244049,0.120605, 0.096863, -0.106232
270, 2690000.000000,-0.028809, -0.034149, -0.015381,-0.023315, 0.002258, -0.244049,0.120605, 0.096863, -0.106232
271, 2700000.000000,-0.010620, -0.026276, -0.018951,-0.023315, -0.021179, -0.250244,0.119568, 0.098450, -0.104309
272, 2710000.000000,-0.010620, -0.026276, -0.018951,-0.019592, -0.021454, -0.250244,0.119568, 0.098450, -0.104309
273, 2720000.000000,-0.010620, -0.023987, -0.019104,-0.019592, -0.021454, -0.250244,0.119568, 0.098450, -0.104309
274, 2730000.000000,-0.009521, -0.023987, -0.019104,-0.019592, -0.021454, -0.250244,0.119568, 0.098450, -0.104309
275, 2740000.000000,-0.009521, -0.023987, -0.019104,-0.019592, -0.021454, -0.250244,0.119568, 0.098450, -0.104309
276, 2750000.000000,-0.006409, -0.019562, -0.015900,-0.025879, -0.017181, -0.233215,0.120026, 0.099792, -0.109131
277, 2760000.000000,-0.006409, -0.019562, -0.015900,-0.025879, -0.017181, -0.233215,0.120026, 0.099792, -0.109131
278, 2770000.000000,-0.004883, -0.010162, -0.015686,-0.025879, -0.017181, -0.233215,0.120026, 0.099792, -0.109131
279, 2780000.000000,-0.004883, -0.010162, -0.015686,-0.025879, -0.017181, -0.233215,0.120026, 0.099792, -0.109131
280, 2790000.000000,-0.004883, -0.010162, -0.015686,-0.025879, -0.017181, -0.215454,0.119354, 0.097229, -0.111633
281, 2800000.000000,0.004211, 0.005371, -0.017639,-0.028290, -0.019104, -0.215454,0.119354, 0.097229, -0.111633
282, 2810000.000000,0.004211, 0.005371, -0.017639,-0.028290, -0.019104, -0.215454,0.119354, 0.097229, -0.111633
283, 2820000.000000,0.009766, 0.022186, -0.017731,-0.028290, -0.019104, -0.215454,0.119354, 0.097229, -0.111633
284, 2830000.000000,0.009766, 0.022186, -0.017731,-0.028290, -0.019104, -0.215454,0.119354, 0.097229, -0.111633
285, 2840000.000000,0.009766, 0.022186, -0.017731,-0.010834, -0.015076, -0.285797,0.120209, 0.097839, -0.112274
286, 2850000.000000,0.005737, 0.024506, -0.018036,-0.010834, -0.015076, -0.285797,0.120209, 0.097839, -0.112274
287, 2860000.000000,0.005737, 0.024506, -0.018036,-0.010834, -0.015076, -0.285797,0.120209, 0.097839, -0.112274
288, 2870000.000000,0.005737, 0.005646, -0.016632,-0.010834, -0.015076, -0.285797,0.120209, 0.097839, -0.112274
289, 2880000.000000,0.005737, 0.005646, -0.016632,-0.010834, -0.015076, -0.260620,0.118286, 0.096405, -0.110077
290, 2890000.000000,0.013550, -0.001038, -0.017639,-0.020538, -0.015778, -0.260620,0.118286, 0.096405, -0.110077
291, 2900000.000000,0.008270, -0.001038, -0.017639,-0.020538, -0.015778, -0.260620,0.118286, 0.096405, -0.110077
292, 2910000.000000,0.008270, -0.001038, -0.017639,-0.020538, -0.015778, -0.260620,0.118286, 0.096405, -0.110077
293, 2920000.000000,0.011261, -0.005035, -0.017487,-0.020538, -0.015778, -0.260620,0.118286, 0.098206, -0.110687
294, 2930000.000000,0.011261, -0.005035, -0.017487,-0.019470, -0.014832, -0.263092,0.119965, 0.098206, -0.110687
295, 2940000.000000,0.013306, -0.013458, -0.018097,-0.019470, -0.014832, -0.263092,0.119965, 0.098206, -0.110687
296, 2950000.000000,0.013306, -0.013458, -0.018097,-0.019470, -0.014832, -0.263092,0.119965, 0.098206, -0.110687
297, 2960000.000000,0.013306, -0.013458, -0.018097,-0.019470, -0.014832, -0.263092,0.119965, 0.098206, -0.110687
298, 2970000.000000,0.014740, -0.012054, -0.020416,-0.026825, -0.017609, -0.249481,0.119324, 0.098907, -0.111298
299, 2980000.000000,0.014740, -0.012054, -0.020416,-0.026825, -0.017609, -0.249481,0.119324, 0.098907, -0.111298
300, 2990000.000000,0.021332, -0.006927, -0.020325,-0.026825, -0.017609, -0.249481,0.119324, 0.098907, -0.111298
301, 3000000.000000,0.021332, -0.006927, -0.020325,-0.026825, -0.017609, -0.249481,0.119324, 0.098907, -0.111298
302, 3010000.000000,0.021332, -0.006927, -0.019745,-0.026825, -0.017609, -0.249481,0.119324, 0.098907, -0.106384
303, 3020000.000000,0.022400, -0.008118, -0.019745,-0.018097, -0.022003, -0.265137,0.116241, 0.098450, -0.106384
304, 3030000.000000,0.022400, -0.008118, -0.019745,-0.018097, -0.022003, -0.265137,0.116241, 0.098450, -0.106384
305, 3040000.000000,0.022247, -0.013184, -0.017487,-0.018097, -0.022003, -0.265137,0.116241, 0.098450, -0.106384
306, 3050000.000000,0.022247, -0.013184, -0.017487,-0.018097, -0.022003, -0.265137,0.116241, 0.098450, -0.106384
307, 3060000.000000,0.022247, -0.020996, -0.018188,-0.019379, -0.019196, -0.258850,0.120819, 0.095367, -0.109222
308, 3070000.000000,0.022858, -0.018280, -0.018188,-0.019379, -0.019196, -0.258850,0.120819, 0.095367, -0.109222
309, 3080000.000000,0.022858, -0.018280, -0.018188,-0.019379, -0.019196, -0.258850,0.120819, 0.095367, -0.109222
310, 3090000.000000,0.022339, -0.020447, -0.018768,-0.019379, -0.019196, -0.258850,0.120819, 0.095367, -0.109222
311, 3100000.000000,0.022339, -0.020447, -0.018768,-0.019379, -0.019196, -0.258850,0.120819, 0.095367, -0.098816
312, 3110000.000000,0.030151, -0.014679, -0.018066,-0.026428, -0.012421, -0.246368,0.123108, 0.099121, -0.098816
313, 3120000.000000,0.023956, -0.014679, -0.018066,-0.026428, -0.012421, -0.246368,0.123108, 0.099121, -0.098816
314, 3130000.000000,0.023956, -0.014679, -0.018066,-0.026428, -0.012421, -0.246368,0.123108, 0.099121, -0.098816
315, 3140000.000000,0.024719, -0.011383, -0.019531,-0.026428, -0.012421, -0.246368,0.123108, 0.099121, -0.098816
316, 3150000.000000,0.024719, -0.011383, -0.019531,-0.031616, -0.024567, -0.219482,0.118408, 0.097260, -0.104614
317, 3160000.000000,0.020935, -0.003357, -0.020203,-0.031616, -0.024567, -0.219482,0.118408, 0.097260, -0.104614
318, 3170000.000000,0.020935, -0.003357, -0.020203,-0.031616, -0.024567, -0.219482,0.118408, 0.097260, -0.104614
319, 3180000.000000,0.020935, -0.003357, -0.020203,-0.031616, -0.024567, -0.219482,0.118408, 0.097260, -0.104614
320, 3190000.000000,0.014221, 0.014984, -0.018890,-0.031616, -0.024567, -0.219482,0.118408, 0.097260, -0.112427
321, 3200000.000000,0.014221, 0.014984, -0.018890,-0.022705, -0.023865, -0.245331,0.122131, 0.099457, -0.109558
322, 3210000.000000,0.007111, 0.020111, -0.017273,-0.022705, -0.023865, -0.245331,0.122131, 0.099457, -0.109558
323, 3220000.000000,0.007111, 0.020111, -0.017273,-0.022705, -0.023865, -0.245331,0.122131, 0.099457, -0.109558
324, 3230000.000000,0.007111, 0.020111, -0.017273,-0.022705, -0.023865, -0.245331,0.122131, 0.099457, -0.109558
325, 3240000.000000,0.001160, 0.023407, -0.017548,-0.017059, -0.021759, -0.249878,0.120758, 0.100311, -0.109619
326, 3250000.000000,0.001160, 0.023407, -0.017548,-0.017059, -0.021759, -0.249878,0.120758, 0.100311, -0.109619
327, 3260000.000000,-0.008209, 0.006287, -0.015198,-0.017059, -0.021759, -0.249878,0.120758, 0.100311, -0.109619
328, 3270000.000000,-0.008209, 0.006287, -0.015198,-0.017059, -0.021759, -0.249878,0.120758, 0.100311, -0.109619
329, 3280000.000000,-0.008209, 0.006287, -0.015198,-0.017059, -0.021759, -0.249878,0.120758, 0.100311, -0.109619
330, 3290000.000000,-0.004364, 0.020844, -0.016815,-0.015564, -0.019836, -0.263550,0.122284, 0.098389, -0.105774
331, 3300000.000000,-0.004364, 0.020844, -0.016815,-0.015564, -0.019836, -0.263550,0.122284, 0.098389, -0.105774
332, 3310000.000000,-0.012817, 0.014038, -0.012817,-0.015564, -0.019836, -0.263550,0.122284, 0.098389, -0.105774
333, 3320000.000000,-0.012817, 0.014038, -0.012817,-0.015564, -0.019836, -0.263550,0.122284, 0.098389, -0.105774
334, 3330000.000000,-0.012817, 0.014038, -0.011047,-0.025940, -0.015808, -0.254730,0.121368, 0.098816, -0.114105
335, 3340000.000000,-0.017548, 0.005798, -0.011047,-0.025940, -0.015808, -0.254730,0.121368, 0.098816, -0.114105
336, 3350000.000000,-0.017548, 0.005798, -0.011047,-0.025940, -0.015808, -0.254730,0.121368, 0.098816, -0.114105
337, 3360000.000000,-0.011566, 0.008759, -0.011719,-0.025940, -0.015808, -0.254730,0.121368, 0.098816, -0.114105
338, 3370000.000000,-0.011566, 0.008759, -0.011719,-0.025940, -0.015808, -0.254730,0.121368, 0.098999, -0.110840
339, 3380000.000000,-0.011932, 0.007507, -0.012543,-0.027466, -0.006989, -0.265656,0.122864, 0.098999, -0.110840
340, 3390000.000000,-0.011932, 0.007507, -0.012543,-0.027466, -0.006989, -0.265656,0.122864, 0.098999, -0.110840
341, 3400000.000000,-0.011932, 0.007507, -0.012543,-0.027466, -0.006989, -0.265656,0.122864, 0.098999, -0.110840
342, 3410000.000000,-0.000519, 0.007965, -0.014496,-0.027466, -0.006989, -0.265656,0.122864, 0.098999, -0.110840
343, 3420000.000000,-0.000519, 0.007965, -0.014496,-0.021362, -0.025879, -0.262543,0.120789, 0.098053, -0.108063
344, 3430000.000000,-0.003693, 0.006866, -0.014465,-0.021362, -0.025879, -0.262543,0.120789, 0.098053, -0.108063
345, 3440000.000000,-0.003693, 0.006866, -0.014465,-0.021362, -0.025879, -0.262543,0.120789, 0.098053, -0.108063
346, 3450000.000000,-0.003693, 0.006866, -0.014465,-0.021362, -0.025879, -0.262543,0.120789, 0.098053, -0.108063
347, 3460000.000000,-0.007629, 0.006409, -0.014404,-0.021362, -0.025879, -0.262543,0.120789, 0.098053, -0.109253
348, 3470000.000000,-0.007629, 0.006409, -0.014404,-0.023651, -0.022217, -0.259521,0.121063, 0.098053, -0.109253
349, 3480000.000000,-0.004639, 0.010315, -0.012543,-0.023651, -0.022217, -0.259521,0.121063, 0.098053, -0.109253
350, 3490000.000000,-0.004639, 0.010315, -0.012543,-0.023651, -0.022217, -0.259521,0.121063, 0.098053, -0.109253
351, 3500000.000000,-0.004639, 0.010315, -0.012543,-0.023651, -0.022217, -0.259521,0.121063, 0.098053, -0.109253
352, 3510000.000000,-0.006683, 0.007385, -0.012451,-0.024933, -0.016724, -0.254730,0.119873, 0.096222, -0.109039
353, 3520000.000000,-0.006683, 0.007385, -0.012451,-0.024933, -0.016724, -0.254730,0.119873, 0.096222, -0.109039
354, 3530000.000000,-0.002136, 0.009644, -0.012085,-0.024933, -0.016724, -0.254730,0.119873, 0.096222, -0.109039
355, 3540000.000000,-0.002136, 0.009644, -0.012085,-0.024933, -0.016724, -0.254730,0.119873, 0.096222, -0.109039
356, 3550000.000000,-0.002136, 0.009644, -0.011719,-0.024933, -0.016724, -0.254730,0.119873, 0.096222, -0.110992
357, 3560000.000000,-0.004517, 0.009979, -0.011719,-0.027557, -0.015808, -0.249512,0.119080, 0.097870, -0.110992
358, 3570000.000000,-0.004517, 0.009979, -0.011719,-0.027557, -0.015808, -0.249512,0.119080, 0.097870, -0.110992
359, 3580000.000000,-0.003754, 0.014648, -0.011078,-0.027557, -0.015808, -0.249512,0.119080, 0.097870, -0.110992
360, 3590000.000000,-0.003754, 0.014648, -0.011078,-0.027557, -0.015808, -0.249512,0.119080, 0.097870, -0.110992
361, 3600000.000000,-0.003754, 0.017365, -0.009247,-0.023834, -0.021759, -0.254211,0.118347, 0.098297, -0.106567
362, 3610000.000000,-0.003754, 0.017365, -0.009247,-0.023834, -0.021759, -0.254211,0.118347, 0.098297, -0.106567
363, 3620000.000000,-0.003754, 0.017365, -0.009247,-0.023834, -0.021759, -0.254211,0.118347, 0.098297, -0.106567
364, 3630000.000000,-0.011230, 0.016571, -0.008118,-0.023834, -0.021759, -0.254211,0.118347, 0.098297, -0.106567
365, 3640000.000000,-0.011230, 0.016571, -0.008118,-0.023834, -0.021759, -0.254211,0.118347, 0.100067, -0.111237
366, 3650000.000000,-0.019135, 0.021576, -0.006561,-0.027863, -0.019623, -0.240479,0.118317, 0.100067, -0.111237
367, 3660000.000000,-0.019135, 0.021576, -0.006561,-0.027863, -0.019623, -0.240479,0.118317, 0.100067, -0.111237
368, 3670000.000000,-0.019135, 0.021576, -0.006561,-0.027863, -0.019623, -0.240479,0.118317, 0.100067, -0.111237
369, 3680000.000000,-0.023010, 0.032928, -0.007599,-0.027863, -0.019623, -0.240479,0.118317, 0.100067, -0.111237
370, 3690000.000000,-0.023010, 0.032928, -0.007599,-0.029785, -0.014587, -0.236755,0.119080, 0.097565, -0.109619
371, 3700000.000000,-0.024994, 0.046356, -0.010284,-0.029785, -0.014587, -0.236755,0.119080, 0.097565, -0.109619
372, 3710000.000000,-0.024994, 0.046356, -0.010284,-0.029785, -0.014587, -0.236755,0.119080, 0.097565, -0.109619
373, 3720000.000000,-0.024994, 0.046356, -0.010284,-0.029785, -0.014587, -0.236755,0.119080, 0.097565, -0.109619
374, 3730000.000000,-0.022156, 0.066132, -0.012299,-0.029785, -0.014587, -0.236755,0.119080, 0.097870, -0.112213
375, 3740000.000000,-0.022156, 0.066132, -0.012299,-0.031158, -0.005310, -0.246368,0.117096, 0.097870, -0.112213
376, 3750000.000000,-0.014252, 0.083130, -0.020142,-0.031158, -0.005310, -0.246368,0.117096, 0.097870, -0.112213
377, 3760000.000000,-0.014252, 0.083130, -0.020142,-0.031158, -0.005310, -0.246368,0.117096, 0.097870, -0.112213
378, 3770000.000000,-0.014252, 0.083130, -0.027588,-0.031158, -0.005310, -0.246368,0.117096, 0.097870, -0.112213
379, 3780000.000000,0.018250, 0.089752, -0.027588,-0.002289, -0.018768, -0.277069,0.114502, 0.096100, -0.111115
380, 3790000.000000,0.018250, 0.089752, -0.027588,-0.002289, -0.018768, -0.277069,0.114502, 0.096100, -0.111115
381, 3800000.000000,0.019470, 0.060608, -0.024780,-0.002289, -0.018768, -0.277069,0.114502, 0.096100, -0.111115
382, 3810000.000000,0.019470, 0.060608, -0.024780,-0.002289, -0.018768, -0.277069,0.114502, 0.096100, -0.111115
383, 3820000.000000,0.019470, 0.051392, -0.019989,-0.002289, -0.018768, -0.277069,0.114502, 0.097687, -0.118958
384, 3830000.000000,0.032928, 0.051392, -0.019989,-0.018860, -0.017212, -0.255402,0.119415, 0.097687, -0.118958
385, 3840000.000000,0.032928, 0.051392, -0.019989,-0.018860, -0.017212, -0.255402,0.119415, 0.097687, -0.118958
386, 3850000.000000,0.031464, 0.052765, -0.016235,-0.018860, -0.017212, -0.255402,0.119415, 0.097687, -0.118958
387, 3860000.000000,0.031464, 0.052765, -0.016235,-0.018860, -0.017212, -0.255402,0.119415, 0.097687, -0.118958
388, 3870000.000000,0.034210, 0.056976, -0.009552,-0.010712, -0.035828, -0.267822,0.118164, 0.098114, -0.105865
389, 3880000.000000,0.034210, 0.056976, -0.009552,-0.010712, -0.035828, -0.267822,0.118164, 0.098114, -0.105865
390, 3890000.000000,0.034210, 0.056976, -0.009552,-0.010712, -0.035828, -0.267822,0.118164, 0.098114, -0.105865
391, 3900000.000000,-0.025574, 0.048859, -0.001648,-0.010712, -0.035828, -0.267822,0.118164, 0.098114, -0.105865
392, 3910000.000000,-0.025574, 0.048859, -0.001648,-0.010712, -0.035828, -0.267822,0.118164, 0.098114, -0.116241
393, 3920000.000000,-0.002899, 0.065308, -0.012787,-0.063354, 0.001862, -0.221405,0.117767, 0.098694, -0.116241
394, 3930000.000000,-0.002899, 0.065308, -0.012787,-0.063354, 0.001862, -0.221405,0.117767, 0.098694, -0.116241
395, 3940000.000000,-0.002899, 0.065308, -0.012787,-0.063354, 0.001862, -0.221405,0.117767, 0.098694, -0.116241
396, 3950000.000000,0.052216, 0.140259, -0.011230,-0.063354, 0.001862, -0.221405,0.117767, 0.098694, -0.116241
397, 3960000.000000,0.052216, 0.140259, -0.011230,-0.027649, -0.013702, -0.245056,0.116394, 0.097595, -0.111877
398, 3970000.000000,-0.000092, 0.182068, -0.013916,-0.027649, -0.013702, -0.245056,0.116394, 0.097595, -0.111877
399, 3980000.000000,-0.000092, 0.182068, -0.013916,-0.027649, -0.013702, -0.245056,0.116394, 0.097595, -0.111877
400, 3990000.000000,-0.000092, 0.182068, -0.013916,-0.027649, -0.013702, -0.245056,0.116394, 0.097595, -0.111877
401, 4000000.000000,0.049011, 0.203766, -0.012878,-0.027649, -0.013702, -0.245056,0.116394, 0.097595, -0.115387
402, 4010000.000000,0.049011, 0.203766, -0.012878,-0.012146, -0.014191, -0.254944,0.116364, 0.099487, -0.115387
403, 4020000.000000,0.095337, 0.209381, -0.010040,-0.012146, -0.014191, -0.254944,0.116364, 0.099487, -0.115387
404, 4030000.000000,0.095337, 0.209381, -0.010040,-0.012146, -0.014191, -0.254944,0.116364, 0.099487, -0.115387
405, 4040000.000000,0.119781, 0.205353, 0.008698,-0.012146, -0.014191, -0.254944,0.116364, 0.099487, -0.115387
406, 4050000.000000,0.119781, 0.205353, 0.008698,0.032990, -0.050842, -0.269348,0.116241, 0.099945, -0.114777
407, 4060000.000000,0.119781, 0.205353, 0.008698,0.032990, -0.050842, -0.269348,0.116241, 0.099945, -0.114777
408, 4070000.000000,0.107727, 0.124908, 0.010834,0.032990, -0.050842, -0.269348,0.116241, 0.099945, -0.114777
409, 4080000.000000,0.107727, 0.124908, 0.010834,0.032990, -0.050842, -0.269348,0.116241, 0.099945, -0.114777
410, 4090000.000000,0.039948, 0.072693, -0.002716,0.032990, -0.033508, -0.261993,0.112335, 0.103241, -0.114166
411, 4100000.000000,0.039948, 0.072693, -0.002716,-0.003601, -0.033508, -0.261993,0.112335, 0.103241, -0.114166
412, 4110000.000000,0.039948, 0.072693, -0.002716,-0.003601, -0.033508, -0.261993,0.112335, 0.103241, -0.114166
413, 4120000.000000,0.037262, 0.100769, -0.005463,-0.003601, -0.033508, -0.261993,0.112335, 0.103241, -0.114166
414, 4130000.000000,0.037262, 0.100769, -0.005463,-0.003601, -0.033508, -0.261993,0.112335, 0.103241, -0.114166
415, 4140000.000000,0.060852, 0.098602, -0.009216,0.003754, -0.035248, -0.258514,0.109314, 0.102417, -0.112305
416, 4150000.000000,0.060852, 0.098602, -0.009216,0.003754, -0.035248, -0.258514,0.109314, 0.102417, -0.112305
417, 4160000.000000,0.060852, 0.098602, -0.013916,0.003754, -0.035248, -0.258514,0.109314, 0.102417, -0.112305
418, 4170000.000000,0.055054, 0.104431, -0.013916,0.003754, -0.035248, -0.258514,0.109314, 0.102417, -0.112305
419, 4180000.000000,0.055054, 0.104431, -0.013916,0.003754, -0.027435, -0.261597,0.109680, 0.102234, -0.112549
420, 4190000.000000,0.014191, 0.123444, -0.008911,-0.003754, -0.031067, -0.261597,0.109680, 0.102234, -0.112549
421, 4200000.000000,0.014191, 0.123444, -0.008911,-0.003754, -0.031067, -0.261597,0.109680, 0.102234, -0.112549
422, 4210000.000000,0.014191, 0.115631, 0.008392,-0.003754, -0.031067, -0.261597,0.109680, 0.102234, -0.112549
423, 4220000.000000,-0.019501, 0.116058, 0.008392,-0.003754, -0.031067, -0.261597,0.109680, 0.102234, -0.112549
424, 4230000.000000,-0.019501, 0.116058, 0.008392,-0.010559, -0.030212, -0.254150,0.110504, 0.099915, -0.120667
425, 4240000.000000,0.012878, 0.147980, 0.034698,-0.010559, -0.030212, -0.254150,0.110504, 0.099915, -0.120667
426, 4250000.000000,0.012878, 0.147980, 0.034698,-0.010559, -0.030212, -0.254150,0.110504, 0.099915, -0.120667
427, 4260000.000000,-0.057434, 0.161835, 0.006622,-0.010559, -0.030212, -0.254150,0.110504, 0.099915, -0.120667
428, 4270000.000000,-0.057526, 0.161835, 0.006622,-0.018372, -0.013885, -0.277069,0.107635, 0.099274, -0.120911
429, 4280000.000000,-0.057526, 0.161835, 0.006622,-0.020233, -0.013885, -0.277069,0.107635, 0.099274, -0.120911
430, 4290000.000000,-0.077484, 0.232056, -0.048828,-0.020233, -0.013885, -0.277069,0.107635, 0.099274, -0.120911
431, 4300000.000000,-0.077484, 0.232056, -0.048828,-0.020233, -0.013885, -0.277069,0.107635, 0.099274, -0.120911
432, 4310000.000000,-0.103973, 0.379578, -0.058502,-0.020233, -0.013885, -0.277069,0.107635, 0.099274, -0.120911
433, 4320000.000000,-0.103973, 0.379578, -0.058502,-0.048096, -0.082214, -0.259216,0.102020, 0.099152, -0.116699
434, 4330000.000000,-0.103973, 0.379578, -0.058502,-0.048096, -0.082214, -0.259216,0.102020, 0.099152, -0.116699
435, 4340000.000000,-0.042084, 0.690338, -0.047791,-0.048096, -0.082214, -0.259216,0.102020, 0.099152, -0.116699
436, 4350000.000000,-0.042084, 0.690338, -0.047791,-0.048096, -0.082214, -0.259216,0.102020, 0.099152, -0.116699
437, 4360000.000000,-0.107361, 0.874237, -0.040253,-0.048096, -0.059448, -0.371704,0.094574, 0.099854, -0.126221
438, 4370000.000000,-0.107361, 0.874237, -0.040253,-0.010193, -0.059448, -0.371704,0.094574, 0.099854, -0.126221
439, 4380000.000000,-0.107361, 0.874237, -0.102753,-0.010193, -0.059448, -0.371704,0.094574, 0.099854, -0.126221
440, 4390000.000000,-0.119598, 0.972839, -0.105194,-0.010193, -0.059448, -0.371704,0.094574, 0.099854, -0.126221
441, 4400000.000000,-0.119598, 0.972839, -0.105194,-0.010193, -0.059448, -0.371704,0.094574, 0.099854, -0.126221
442, 4410000.000000,-0.103241, 0.989258, -0.237274,-0.090942, 0.046783, -0.454742,0.078491, 0.096741, -0.127594
443, 4420000.000000,-0.103241, 0.989258, -0.237274,-0.090942, 0.046783, -0.454742,0.078491, 0.096741, -0.127594
444, 4430000.000000,-0.103241, 0.989258, -0.409973,-0.090942, 0.046783, -0.454742,0.078491, 0.096741, -0.127594
445, 4440000.000000,0.098999, 0.989258, -0.409973,-0.090942, 0.046783, -0.454742,0.078491, 0.096741, -0.127594
446, 4450000.000000,0.098999, 0.989258, -0.409973,-0.090942, -0.037262, -0.567200,0.042023, 0.095856, -0.126831
447, 4460000.000000,0.158417, 0.989258, -0.530762,-0.227295, -0.037262, -0.567200,0.042023, 0.095856, -0.126831
448, 4470000.000000,0.158417, 0.989258, -0.530762,-0.227295, -0.037262, -0.567200,0.042023, 0.095856, -0.126831
449, 4480000.000000,0.044220, 0.989258, -0.668762,-0.227295, -0.037262, -0.567200,0.042023, 0.095856, -0.126831
450, 4490000.000000,0.044220, 0.989258, -0.668762,-0.227295, -0.037262, -0.567200,0.042023, 0.095856, -0.126831
451, 4500000.000000,0.044220, 0.989258, -0.668762,-0.638458, -0.031281, -0.031311,0.010040, 0.087494, -0.110504
452, 4510000.000000,-0.198120, 0.989258, -0.812042,-0.638458, -0.031281, -0.031311,0.010040, 0.087494, -0.110504
453, 4520000.000000,-0.198120, 0.989258, -0.812042,-0.638458, -0.031281, -0.031311,0.010040, 0.087494, -0.110504
454, 4530000.000000,0.022156, 0.986816, -0.510712,-0.638458, -0.031281, -0.031311,0.010040, 0.087494, -0.110504
455, 4540000.000000,0.022156, 0.986816, -0.510712,0.804352, -0.349884, -0.980835,-0.008453, 0.084137, -0.092651
456, 4550000.000000,0.022156, 0.986816, -0.456024,0.804352, -0.349884, -0.980835,-0.008453, 0.084137, -0.092651
457, 4560000.000000,0.158752, 0.837952, -0.456177,0.804352, -0.349884, -0.980835,-0.008453, 0.084137, -0.092651
458, 4570000.000000,0.158752, 0.837952, -0.456177,0.804352, -0.349884, -0.980835,-0.008453, 0.084137, -0.092651
459, 4580000.000000,-0.055908, 0.644348, -0.298401,0.804352, -0.349884, -0.980835,-0.008453, 0.084137, -0.084839
460, 4590000.000000,-0.055908, 0.644348, -0.298401,-0.104614, -0.330811, -0.999756,-0.004150, 0.084564, -0.085083
461, 4600000.000000,-0.055908, 0.644348, -0.082855,-0.104614, -0.330811, -0.999756,-0.004150, 0.084564, -0.085083
462, 4610000.000000,-0.111328, -0.192200, -0.082855,-0.104614, -0.330811, -0.999756,-0.004150, 0.084564, -0.085083
463, 4620000.000000,-0.111328, -0.192200, -0.082855,-0.104614, -0.330811, -0.999756,-0.004150, 0.084564, -0.085083
464, 4630000.000000,-0.130280, -0.433533, -0.010071,-0.278107, -0.127838, -0.392761,0.004944, 0.083313, -0.090363
465, 4640000.000000,-0.130280, -0.433533, -0.010071,-0.278107, -0.127838, -0.392761,0.004944, 0.083313, -0.090363
466, 4650000.000000,-0.044342, -0.363220, 0.041046,-0.278107, -0.127838, -0.392761,0.004944, 0.083313, -0.090363
467, 4660000.000000,-0.041595, -0.363220, 0.041046,-0.278107, -0.127838, -0.392761,0.004944, 0.083313, -0.090363
468, 4670000.000000,-0.041595, -0.363220, 0.041046,-0.278107, -0.127838, -0.392761,0.004944, 0.083313, -0.090363
469, 4680000.000000,0.040894, -0.302368, 0.039307,-0.237000, -0.032837, -0.491180,0.013123, 0.081360, -0.088135
470, 4690000.000000,0.040894, -0.302368, 0.039307,-0.237000, -0.032837, -0.491180,0.013123, 0.081360, -0.088135
471, 4700000.000000,0.102966, -0.399780, 0.034424,-0.237000, -0.032837, -0.491180,0.013123, 0.081360, -0.088135
472, 4710000.000000,0.102966, -0.399780, 0.034424,-0.237000, -0.032837, -0.491180,0.013123, 0.081360, -0.088135
473, 4720000.000000,0.102966, -0.399780, 0.034424,-0.164703, -0.014191, -0.666473,0.020020, 0.082672, -0.091797
474, 4730000.000000,0.128662, -0.600525, 0.031891,-0.164703, -0.014191, -0.666473,0.020020, 0.082672, -0.091797
475, 4740000.000000,0.128662, -0.600525, 0.031891,-0.164703, -0.014191, -0.666473,0.020020, 0.082672, -0.091797
476, 4750000.000000,0.148071, -0.837646, 0.041718,-0.164703, -0.014191, -0.666473,0.020020, 0.082672, -0.091797
477, 4760000.000000,0.148071, -0.837646, 0.041718,-0.164703, -0.014191, -0.666473,0.020020, 0.090485, -0.098114
478, 4770000.000000,0.148071, -0.837646, 0.065155,-0.100159, -0.049530, -0.562378,0.033600, 0.087097, -0.098114
479, 4780000.000000,0.168274, -0.988678, 0.066315,-0.100159, -0.049530, -0.562378,0.033600, 0.087097, -0.098114
480, 4790000.000000,0.168274, -0.988678, 0.066315,-0.100159, -0.049530, -0.562378,0.033600, 0.087097, -0.098114
481, 4800000.000000,0.205811, -1.000000, 0.101746,-0.100159, -0.049530, -0.562378,0.033600, 0.087097, -0.098114
482, 4810000.000000,0.205811, -1.000000, 0.101746,-0.000977, -0.130005, -0.472534,0.045624, 0.093109, -0.105072
483, 4820000.000000,0.205811, -1.000000, 0.167938,-0.000977, -0.130005, -0.472534,0.045624, 0.093109, -0.105072
484, 4830000.000000,0.242035, -1.000000, 0.167938,-0.000977, -0.130005, -0.472534,0.045624, 0.093109, -0.105072
485, 4840000.000000,0.242035, -1.000000, 0.167938,-0.000977, -0.130005, -0.472534,0.045624, 0.093109, -0.105072
486, 4850000.000000,0.251007, -1.000000, 0.275726,-0.000977, -0.130005, -0.472534,0.045624, 0.093109, -0.088165
487, 4860000.000000,0.251007, -1.000000, 0.275726,0.087799, -0.184814, -0.299225,0.065887, 0.101990, -0.088165
488, 4870000.000000,0.251007, -1.000000, 0.398712,0.087799, -0.184814, -0.299225,0.065887, 0.101990, -0.088165
489, 4880000.000000,0.238708, -1.000000, 0.398712,0.087799, -0.184814, -0.299225,0.065887, 0.101990, -0.088165
490, 4890000.000000,0.238708, -1.000000, 0.398712,0.087799, -0.184814, -0.299225,0.065887, 0.101990, -0.088165
491, 4900000.000000,0.242462, -1.000000, 0.495850,0.142487, -0.075806, -0.278198,0.081360, 0.111053, -0.076050
492, 4910000.000000,0.242462, -1.000000, 0.495850,0.142487, -0.075806, -0.278198,0.081360, 0.111053, -0.076050
493, 4920000.000000,0.272552, -1.000000, 0.557465,0.142487, -0.075806, -0.278198,0.081360, 0.111053, -0.076050
494, 4930000.000000,0.272552, -1.000000, 0.557465,0.142487, -0.075806, -0.278198,0.081360, 0.111053, -0.076050
495, 4940000.000000,0.272552, -1.000000, 0.557465,0.142487, -0.075806, -0.278198,0.081360, 0.111053, -0.067871
496, 4950000.000000,0.305054, -1.000000, 0.587128,0.177917, 0.069702, -0.371460,0.075836, 0.121490, -0.067871
497, 4960000.000000,0.305054, -1.000000, 0.587128,0.177917, 0.069702, -0.371460,0.075836, 0.121490, -0.067871
498, 4970000.000000,0.336304, -1.000000, 0.611237,0.177917, 0.069702, -0.371460,0.075836, 0.121490, -0.067871
499, 4980000.000000,0.336304, -1.000000, 0.611237,0.177917, 0.069702, -0.371460,0.075836, 0.121490, -0.067871
500, 4990000.000000,0.336304, -1.000000, 0.611237,0.214355, 0.297089, -0.370850,0.082489, 0.133575, -0.072235
501, 5000000.000000,0.319672, -1.000000, 0.554443,0.214355, 0.297089, -0.370850,0.082489, 0.133575, -0.072235
502, 5010000.000000,0.319672, -1.000000, 0.554443,0.214355, 0.297089, -0.370850,0.082489, 0.133575, -0.072235
503, 5020000.000000,0.253082, -1.000000, 0.359802,0.214355, 0.297089, -0.370850,0.082489, 0.133575, -0.072235
504, 5030000.000000,0.253082, -1.000000, 0.359802,0.214355, 0.297089, -0.370850,0.082489, 0.133575, -0.072235
505, 5040000.000000,0.253082, -1.000000, 0.359802,0.280304, 0.242371, -0.422089,0.088074, 0.139252, -0.071899
506, 5050000.000000,0.185333, -1.000000, 0.203705,0.280304, 0.242371, -0.422089,0.088074, 0.139252, -0.071899
507, 5060000.000000,0.185333, -1.000000, 0.203705,0.280304, 0.242371, -0.422089,0.088074, 0.139252, -0.071899
508, 5070000.000000,0.106506, -1.000000, 0.101410,0.280304, 0.242371, -0.422089,0.088074, 0.139252, -0.071899
509, 5080000.000000,0.106506, -1.000000, 0.101410,0.403870, -0.046417, -0.518829,0.107025, 0.139099, -0.066833
510, 5090000.000000,0.106506, -1.000000, 0.088013,0.403870, -0.046417, -0.518829,0.107025, 0.139099, -0.066833
511, 5100000.000000,0.058319, -1.000000, 0.088013,0.403870, -0.046417, -0.518829,0.107025, 0.139099, -0.066833
512, 5110000.000000,0.058319, -1.000000, 0.088013,0.403870, -0.046417, -0.518829,0.107025, 0.139099, -0.066833
513, 5120000.000000,0.042847, -1.000000, 0.162872,0.403870, -0.046417, -0.518829,0.107025, 0.139099, -0.066833
514, 5130000.000000,0.042847, -1.000000, 0.162872,0.656555, -0.217224, -0.561401,0.109314, 0.133148, -0.041656
515, 5140000.000000,0.042847, -1.000000, 0.253662,0.656555, -0.217224, -0.561401,0.109314, 0.133148, -0.041656
516, 5150000.000000,-0.001831, -1.000000, 0.253662,0.656555, -0.217224, -0.561401,0.109314, 0.133148, -0.041656
517, 5160000.000000,-0.001831, -1.000000, 0.253662,0.656555, -0.217224, -0.561401,0.109314, 0.133148, -0.041656
518, 5170000.000000,-0.050262, -1.000000, 0.295227,0.992493, -0.009949, -0.232880,0.107269, 0.131653, -0.028717
519, 5180000.000000,-0.050262, -1.000000, 0.295227,0.999756, -0.009949, -0.232880,0.107269, 0.131653, -0.028717
520, 5190000.000000,-0.021973, -1.000000, 0.212830,0.999756, -0.009949, -0.232880,0.107269, 0.131653, -0.028717
521, 5200000.000000,-0.021973, -1.000000, 0.212830,0.999756, -0.009949, -0.232880,0.107269, 0.131653, -0.028717
522, 5210000.000000,-0.021973, -1.000000, 0.212830,0.999756, -0.009949, -0.232880,0.107269, 0.131653, -0.044342
523, 5220000.000000,0.123016, -0.942566, 0.055145,0.999756, 0.042480, -0.142639,0.092865, 0.136658, -0.043671
524, 5230000.000000,0.123016, -0.942566, 0.055145,0.999756, 0.042480, -0.142639,0.092865, 0.136658, -0.043671
525, 5240000.000000,0.155975, -0.687225, -0.047180,0.999756, 0.042480, -0.142639,0.092865, 0.136658, -0.043671
526, 5250000.000000,0.155975, -0.687225, -0.047180,0.999756, 0.042480, -0.142639,0.092865, 0.136658, -0.043671
527, 5260000.000000,0.155975, -0.687225, -0.047180,0.999756, -0.210175, -0.022949,0.082428, 0.140656, -0.051971
528, 5270000.000000,0.094818, -0.378815, -0.056274,0.999756, -0.210175, -0.022949,0.082428, 0.140656, -0.051971
529, 5280000.000000,0.094818, -0.378815, -0.056274,0.999756, -0.210175, -0.022949,0.082428, 0.140656, -0.051971
530, 5290000.000000,0.039825, -0.090912, -0.019196,0.999756, -0.210175, -0.022949,0.082428, 0.140656, -0.051971
531, 5300000.000000,0.039825, -0.090912, -0.019196,0.999756, -0.210175, -0.022949,0.082428, 0.140656, -0.059784
532, 5310000.000000,0.039825, -0.090912, 0.012054,0.999756, -0.179199, 0.220825,0.073578, 0.141388, -0.058777
533, 5320000.000000,0.057831, 0.176941, 0.013794,0.999756, -0.179199, 0.220825,0.073578, 0.141388, -0.058777
534, 5330000.000000,0.057831, 0.176941, 0.013794,0.999756, -0.179199, 0.220825,0.073578, 0.141388, -0.058777
535, 5340000.000000,0.125916, 0.496063, 0.038696,0.999756, -0.179199, 0.220825,0.073578, 0.141388, -0.058777
536, 5350000.000000,0.125916, 0.496063, 0.038696,0.820068, 0.126617, 0.685364,0.062286, 0.143036, -0.070709
537, 5360000.000000,0.125916, 0.496063, -0.041260,0.815308, 0.126617, 0.685364,0.062286, 0.143036, -0.070709
538, 5370000.000000,0.180115, 0.902130, -0.041260,0.815308, 0.126617, 0.685364,0.062286, 0.143036, -0.070709
539, 5380000.000000,0.180115, 0.902130, -0.041260,0.815308, 0.126617, 0.685364,0.062286, 0.143036, -0.070709
540, 5390000.000000,-0.043365, 0.978302, -0.279083,0.815308, 0.126617, 0.685364,0.062286, 0.143036, -0.070709
541, 5400000.000000,-0.043365, 0.978302, -0.279083,0.074860, -0.757050, -0.812500,0.049896, 0.136932, -0.075806
542, 5410000.000000,-0.703094, 0.975586, -0.151459,0.074860, -0.757050, -0.812500,0.049896, 0.136932, -0.075806
543, 5420000.000000,-0.703094, 0.975586, -0.151459,0.074860, -0.757050, -0.812500,0.049896, 0.136932, -0.075806
544, 5430000.000000,-0.703094, 0.975586, -0.151459,0.074860, -0.757050, -0.812500,0.049896, 0.136932, -0.075806
545, 5440000.000000,-0.474518, 0.866547, 0.216095,0.958313, 0.939728, -0.931641,0.037933, 0.133392, -0.083740
546, 5450000.000000,-0.474518, 0.866547, 0.216095,0.958313, 0.939728, -0.931641,0.037933, 0.133392, -0.083740
547, 5460000.000000,0.453094, -0.015656, -0.143158,0.958313, 0.939728, -0.931641,0.037933, 0.133392, -0.083740
548, 5470000.000000,0.453094, -0.015656, -0.143158,0.958313, 0.939728, -0.931641,0.037933, 0.133392, -0.083740
549, 5480000.000000,0.453094, -0.015656, -0.143158,0.958313, 0.939728, -0.931641,0.037933, 0.125580, -0.087463
550, 5490000.000000,-0.592682, 0.225769, 0.115509,-0.316437, -0.742493, -0.446564,0.033051, 0.131744, -0.087463
551, 5500000.000000,-0.592682, 0.225769, 0.115509,-0.316437, -0.742493, -0.446564,0.033051, 0.131744, -0.087463
552, 5510000.000000,-0.009277, 0.093262, -0.000519,-0.316437, -0.742493, -0.446564,0.033051, 0.131744, -0.087463
553, 5520000.000000,-0.009277, 0.093262, -0.000519,-0.316437, -0.742493, -0.446564,0.033051, 0.131744, -0.087463
554, 5530000.000000,-0.009277, 0.093262, 0.101044,0.170135, 0.033417, -0.347107,0.030426, 0.130585, -0.085114
555, 5540000.000000,0.195160, 0.128632, 0.101440,0.170135, 0.033417, -0.347107,0.030426, 0.130585, -0.085114
556, 5550000.000000,0.195160, 0.128632, 0.101440,0.170135, 0.033417, -0.347107,0.030426, 0.130585, -0.085114
557, 5560000.000000,0.138214, 0.175232, -0.346252,0.170135, 0.033417, -0.347107,0.030426, 0.130585, -0.085114
558, 5570000.000000,0.138214, 0.175232, -0.346252,0.170135, 0.033417, -0.347107,0.030426, 0.130585, -0.083893
559, 5580000.000000,0.138214, 0.175232, 0.079651,0.003021, 0.036713, -0.323853,0.030212, 0.131378, -0.083893
560, 5590000.000000,-0.020538, 0.089935, 0.079651,0.003021, 0.036713, -0.323853,0.030212, 0.131378, -0.083893
561, 5600000.000000,-0.020538, 0.089935, 0.079651,0.003021, 0.036713, -0.323853,0.030212, 0.131378, -0.083893
562, 5610000.000000,-0.006561, 0.027771, 0.036896,0.003021, 0.036713, -0.323853,0.030212, 0.131378, -0.083893
563, 5620000.000000,-0.006561, 0.027771, 0.036896,-0.020935, -0.016388, -0.243805,0.031952, 0.129974, -0.087128
564, 5630000.000000,-0.006561, -0.035492, -0.034546,-0.020935, -0.016388, -0.243805,0.031952, 0.129974, -0.087128
565, 5640000.000000,-0.000244, -0.035492, -0.034546,-0.020935, -0.016388, -0.243805,0.031952, 0.129974, -0.087128
566, 5650000.000000,-0.000244, -0.035492, -0.034546,-0.020935, -0.016388, -0.243805,0.031952, 0.129974, -0.087128
567, 5660000.000000,0.003174, 0.031708, 0.033447,-0.020935, -0.016388, -0.243805,0.031952, 0.129974, -0.082916
568, 5670000.000000,0.003174, 0.031708, 0.033447,-0.023834, -0.028870, -0.243927,0.034851, 0.127777, -0.082916
569, 5680000.000000,-0.005280, 0.053772, 0.032623,-0.023834, -0.028870, -0.243927,0.034851, 0.127777, -0.082916
570, 5690000.000000,-0.005280, 0.053772, 0.032623,-0.023834, -0.028870, -0.243927,0.034851, 0.127777, -0.082916
571, 5700000.000000,-0.005280, 0.053772, 0.032623,-0.023834, -0.028870, -0.243927,0.034851, 0.127777, -0.082916
572, 5710000.000000,0.033813, 0.074066, 0.026245,-0.002808, -0.030426, -0.263153,0.026672, 0.132233, -0.086151
573, 5720000.000000,0.033813, 0.074066, 0.026245,-0.002808, -0.030426, -0.263153,0.026672, 0.132233, -0.086151
574, 5730000.000000,0.046661, 0.094391, 0.035034,-0.002808, -0.030426, -0.263153,0.026672, 0.132233, -0.086151
575, 5740000.000000,0.046661, 0.094391, 0.035034,-0.002808, -0.030426, -0.263153,0.026672, 0.132233, -0.086151
576, 5750000.000000,0.046661, 0.094391, 0.035034,-0.002808, -0.030426, -0.263153,0.026672, 0.132233, -0.087524
577, 5760000.000000,0.044647, 0.086212, 0.018127,-0.048370, -0.037994, -0.278320,0.026581, 0.133972, -0.087524
578, 5770000.000000,0.044647, 0.086212, 0.018127,-0.048370, -0.037994, -0.278320,0.026581, 0.133972, -0.087524
579, 5780000.000000,-0.004242, 0.222443, 0.021210,-0.048370, -0.037994, -0.278320,0.026581, 0.133972, -0.087524
580, 5790000.000000,-0.004242, 0.222443, 0.021210,-0.048370, -0.037994, -0.278320,0.026581, 0.133972, -0.087524
581, 5800000.000000,-0.004242, 0.222443, 0.096466,0.001984, -0.009552, -0.255615,0.027557, 0.131409, -0.081940
582, 5810000.000000,0.022400, 0.218994, 0.096466,0.001984, -0.009552, -0.255615,0.027557, 0.131409, -0.081940
583, 5820000.000000,0.022400, 0.218994, 0.096466,0.001984, -0.009552, -0.255615,0.027557, 0.131409, -0.081940
584, 5830000.000000,-0.037140, 0.356903, 0.096497,0.001984, -0.009552, -0.255615,0.027557, 0.131409, -0.081940
585, 5840000.000000,-0.037140, 0.356903, 0.096497,0.001984, -0.009552, -0.255615,0.027557, 0.131409, -0.081757
586, 5850000.000000,-0.037140, 0.700043, -0.061798,-0.274017, -0.078796, -0.362579,0.023346, 0.129974, -0.081757
587, 5860000.000000,-0.008087, 0.700043, -0.061798,-0.274017, -0.078796, -0.362579,0.023346, 0.129974, -0.081757
588, 5870000.000000,-0.008087, 0.700043, -0.061798,-0.274017, -0.078796, -0.362579,0.023346, 0.129974, -0.081757
589, 5880000.000000,-0.002594, 0.896576, -0.208160,-0.274017, -0.078796, -0.362579,0.023346, 0.129974, -0.081757
590, 5890000.000000,-0.002594, 0.896576, -0.208160,-0.397064, 0.206421, -0.841003,0.010651, 0.132812, -0.070038
591, 5900000.000000,0.734375, 0.989258, -0.194763,-0.397064, 0.206421, -0.841003,0.010651, 0.132812, -0.070038
592, 5910000.000000,0.734375, 0.989258, -0.194763,-0.397064, 0.206421, -0.841003,0.010651, 0.132812, -0.070038
593, 5920000.000000,0.734375, 0.989258, -0.194763,-0.397064, 0.206421, -0.841003,0.010651, 0.132812, -0.070038
594, 5930000.000000,0.750000, 0.989258, -0.442871,-0.397064, 0.206421, -0.031891,-0.009064, 0.132111, -0.045380
595, 5940000.000000,0.750000, 0.989258, -0.442871,-0.047729, -0.026917, -0.031891,-0.009064, 0.132111, -0.045380
596, 5950000.000000,0.531097, 0.989258, -0.609192,-0.047729, -0.026917, -0.031891,-0.009064, 0.132111, -0.045380
597, 5960000.000000,0.531097, 0.989258, -0.609192,-0.047729, -0.026917, -0.031891,-0.009064, 0.132111, -0.045380
598, 5970000.000000,0.531097, 0.989258, -0.452393,-0.047729, -0.026917, -0.031891,-0.009064, 0.132111, -0.045380
599, 5980000.000000,0.471527, 0.987305, -0.452393,0.976654, -0.637085, -0.655212,-0.012207, 0.129120, -0.010101
600, 5990000.000000,0.471527, 0.987305, -0.452393,0.976654, -0.637085, -0.655212,-0.012207, 0.129120, -0.010101
601, 6000000.000000,0.583466, 0.960083, -0.182739,0.976654, -0.637085, -0.655212,-0.012207, 0.129120, -0.010101
602, 6010000.000000,0.583466, 0.960083, -0.182739,0.976654, -0.637085, -0.655212,-0.012207, 0.129120, -0.010101
603, 6020000.000000,0.583466, 0.991333, -0.657104,0.976654, -0.637085, -0.655212,-0.012207, 0.129608, 0.004303
604, 6030000.000000,0.498260, 0.989166, -0.657104,-0.028870, -0.197998, -0.999756,-0.011414, 0.129608, 0.004303
605, 6040000.000000,0.498260, 0.989166, -0.657104,-0.028870, -0.197998, -0.999756,-0.011414, 0.129608, 0.004303
606, 6050000.000000,0.417969, 0.884216, -0.190704,-0.028870, -0.197998, -0.999756,-0.011414, 0.129608, 0.004303
607, 6060000.000000,0.417969, 0.884216, -0.190704,-0.028870, -0.197998, -0.999756,-0.011414, 0.129608, 0.004303
608, 6070000.000000,0.417969, 0.623657, -0.216095,-0.205353, -0.232880, -0.905853,-0.013580, 0.130280, -0.010925
609, 6080000.000000,0.063934, 0.623657, -0.216095,-0.205353, -0.232880, -0.905853,-0.013580, 0.130280, -0.010925
610, 6090000.000000,0.063934, 0.623657, -0.216095,-0.205353, -0.232880, -0.905853,-0.013580, 0.130280, -0.010925
611, 6100000.000000,-0.153015, 0.553741, -0.182495,-0.205353, -0.232880, -0.905853,-0.013580, 0.130280, -0.010925
612, 6110000.000000,-0.153015, 0.553741, -0.182495,-0.205353, -0.232880, -0.655487,-0.017548, 0.136719, -0.017212
613, 6120000.000000,-0.180420, 0.640839, -0.179382,-0.315613, -0.052246, -0.655487,-0.017548, 0.136719, -0.017212
614, 6130000.000000,-0.180420, 0.640839, -0.179382,-0.315613, -0.052246, -0.655487,-0.017548, 0.136719, -0.017212
615, 6140000.000000,-0.180420, 0.640839, -0.179382,-0.315613, -0.052246, -0.655487,-0.017548, 0.136719, -0.017212
616, 6150000.000000,0.003235, 0.840424, -0.169373,-0.315613, -0.052246, -0.655487,-0.017548, 0.136719, -0.017212
617, 6160000.000000,0.003235, 0.840424, -0.169373,-0.395660, -0.034576, -0.872803,-0.015656, 0.137207, -0.006653
618, 6170000.000000,0.076965, 0.836487, -0.244720,-0.395660, -0.034576, -0.872803,-0.015656, 0.137207, -0.006653
619, 6180000.000000,0.076965, 0.836487, -0.244720,-0.395660, -0.034576, -0.872803,-0.015656, 0.137207, -0.006653
620, 6190000.000000,0.076965, 0.836487, -0.244720,-0.395660, -0.034576, -0.872803,-0.015656, 0.137207, -0.006653
621, 6200000.000000,0.124908, 0.681732, -0.312408,-0.395660, -0.034576, -0.872803,-0.023468, 0.140198, -0.005341
622, 6210000.000000,0.124908, 0.681732, -0.312408,-0.348358, -0.199005, -0.999756,-0.024170, 0.140198, -0.005341
623, 6220000.000000,0.064423, 0.423523, -0.300385,-0.348358, -0.199005, -0.999756,-0.024170, 0.140198, -0.005341
624, 6230000.000000,0.064423, 0.423523, -0.300385,-0.348358, -0.199005, -0.999756,-0.024170, 0.140198, -0.005341
625, 6240000.000000,0.064423, 0.423523, -0.234619,-0.348358, -0.199005, -0.999756,-0.024170, 0.140198, -0.005341
626, 6250000.000000,-0.095581, 0.135681, -0.234619,-0.426147, -0.237427, -0.857788,-0.025482, 0.142334, -0.021179
627, 6260000.000000,-0.095581, 0.135681, -0.234619,-0.426147, -0.237427, -0.857788,-0.025482, 0.142334, -0.021179
628, 6270000.000000,-0.283661, -0.138855, -0.169891,-0.426147, -0.237427, -0.857788,-0.025482, 0.142334, -0.021179
629, 6280000.000000,-0.283661, -0.138855, -0.169891,-0.426147, -0.237427, -0.857788,-0.025482, 0.142334, -0.021179
630, 6290000.000000,-0.283661, -0.138855, -0.143463,-0.426147, -0.237427, -0.857788,-0.025482, 0.143311, -0.048126
631, 6300000.000000,-0.401764, -0.391388, -0.143463,-0.418610, -0.113739, -0.640442,-0.020325, 0.143311, -0.048126
632, 6310000.000000,-0.401764, -0.391388, -0.143463,-0.418610, -0.113739, -0.640442,-0.020325, 0.143311, -0.048126
633, 6320000.000000,-0.385376, -0.604095, -0.155914,-0.418610, -0.113739, -0.640442,-0.020325, 0.143311, -0.048126
634, 6330000.000000,-0.385376, -0.604095, -0.155914,-0.418610, -0.113739, -0.640442,-0.020325, 0.143311, -0.048126
635, 6340000.000000,-0.315552, -0.837677, -0.191711,-0.307190, -0.120667, -0.643982,-0.004333, 0.148438, -0.070496
636, 6350000.000000,-0.315552, -0.837677, -0.191711,-0.307190, -0.120667, -0.643982,-0.004333, 0.148438, -0.070496
637, 6360000.000000,-0.315552, -0.837677, -0.222961,-0.307190, -0.120667, -0.643982,-0.004333, 0.148438, -0.070496
638, 6370000.000000,-0.229767, -0.991119, -0.224976,-0.307190, -0.120667, -0.643982,-0.004333, 0.148438, -0.070496
639, 6380000.000000,-0.229767, -0.991119, -0.224976,-0.307190, -0.201569, -0.647369,0.032135, 0.144714, -0.066559
640, 6390000.000000,-0.118317, -1.000000, -0.230377,-0.098022, -0.201569, -0.647369,0.032135, 0.144714, -0.066559
641, 6400000.000000,-0.118317, -1.000000, -0.230377,-0.098022, -0.201569, -0.647369,0.032135, 0.144714, -0.066559
642, 6410000.000000,-0.118317, -1.000000, -0.191925,-0.098022, -0.201569, -0.647369,0.032135, 0.144714, -0.066559
643, 6420000.000000,-0.021973, -1.000000, -0.191925,-0.098022, -0.201569, -0.647369,0.032135, 0.144714, -0.066559
644, 6430000.000000,-0.021973, -1.000000, -0.191925,0.157654, -0.225616, -0.406891,0.067505, 0.133362, -0.035583
645, 6440000.000000,0.064362, -1.000000, -0.126007,0.157654, -0.225616, -0.406891,0.067505, 0.133362, -0.035583
646, 6450000.000000,0.064362, -1.000000, -0.126007,0.157654, -0.225616, -0.406891,0.067505, 0.133362, -0.035583
647, 6460000.000000,0.064362, -1.000000, -0.062256,0.157654, -0.225616, -0.406891,0.067505, 0.133362, -0.035583
648, 6470000.000000,0.151550, -1.000000, -0.062256,0.157654, -0.179199, -0.298859,0.070496, 0.114227, 0.006104
649, 6480000.000000,0.151550, -1.000000, -0.062256,0.272858, -0.179199, -0.298859,0.070496, 0.114227, 0.006104
650, 6490000.000000,0.251526, -1.000000, 0.003510,0.272858, -0.179199, -0.298859,0.070496, 0.114227, 0.006104
651, 6500000.000000,0.251526, -1.000000, 0.003510,0.272858, -0.179199, -0.298859,0.070496, 0.114227, 0.006104
652, 6510000.000000,0.345276, -1.000000, 0.083862,0.272858, -0.179199, -0.298859,0.070496, 0.114227, 0.006104
653, 6520000.000000,0.344391, -1.000000, 0.083862,0.346008, -0.153381, -0.495697,0.025757, 0.098572, 0.029236
654, 6530000.000000,0.344391, -1.000000, 0.083862,0.346008, -0.153381, -0.495697,0.025757, 0.098572, 0.029236
655, 6540000.000000,0.387909, -1.000000, 0.168182,0.346008, -0.153381, -0.495697,0.025757, 0.098572, 0.029236
656, 6550000.000000,0.387909, -1.000000, 0.168182,0.346008, -0.153381, -0.495697,0.025757, 0.098572, 0.029236
657, 6560000.000000,0.415558, -1.000000, 0.249695,0.346008, -0.027374, -0.605408,-0.051208, 0.106995, -0.010712
658, 6570000.000000,0.415558, -1.000000, 0.249695,0.407318, -0.027374, -0.605408,-0.051208, 0.106995, -0.010712
659, 6580000.000000,0.415558, -1.000000, 0.299988,0.407318, -0.027374, -0.605408,-0.051208, 0.106995, -0.010712
660, 6590000.000000,0.457825, -1.000000, 0.299988,0.407318, -0.027374, -0.605408,-0.051208, 0.106995, -0.010712
661, 6600000.000000,0.457825, -1.000000, 0.299988,0.407318, -0.027374, -0.605408,-0.051208, 0.106995, -0.120087
662, 6610000.000000,0.516418, -1.000000, 0.315338,0.450623, 0.103577, -0.603027,-0.087799, 0.138031, -0.118958
663, 6620000.000000,0.516418, -1.000000, 0.315338,0.450623, 0.103577, -0.603027,-0.087799, 0.138031, -0.118958
664, 6630000.000000,0.516418, -1.000000, 0.331940,0.450623, 0.103577, -0.603027,-0.087799, 0.138031, -0.118958
665, 6640000.000000,0.555817, -1.000000, 0.331940,0.450623, 0.103577, -0.603027,-0.087799, 0.138031, -0.118958
666, 6650000.000000,0.555817, -1.000000, 0.331940,0.614929, -0.151581, -0.754486,-0.018250, 0.171539, -0.184143
667, 6660000.000000,0.510254, -1.000000, 0.426941,0.614929, -0.151581, -0.754486,-0.018250, 0.171539, -0.184143
668, 6670000.000000,0.510254, -1.000000, 0.426941,0.614929, -0.151581, -0.754486,-0.018250, 0.171539, -0.184143
669, 6680000.000000,0.416504, -1.000000, 0.597198,0.614929, -0.151581, -0.754486,-0.018250, 0.171539, -0.184143
670, 6690000.000000,0.416504, -1.000000, 0.597198,0.614929, -0.151581, -0.754486,-0.018250, 0.171539, -0.184143
671, 6700000.000000,0.416504, -1.000000, 0.597198,0.849335, -0.035278, -0.757782,0.057281, 0.180206, -0.169128
672, 6710000.000000,0.348419, -1.000000, 0.728516,0.849335, -0.035278, -0.757782,0.057281, 0.180206, -0.169128
673, 6720000.000000,0.348419, -1.000000, 0.728516,0.849335, -0.035278, -0.757782,0.057281, 0.180206, -0.169128
674, 6730000.000000,0.269592, -1.000000, 0.750549,0.849335, -0.035278, -0.757782,0.057281, 0.180206, -0.169128
675, 6740000.000000,0.269592, -1.000000, 0.750549,0.896210, -0.065430, -0.807129,0.095551, 0.177002, -0.138000
676, 6750000.000000,0.269592, -1.000000, 0.750549,0.891479, -0.065430, -0.807129,0.095551, 0.177002, -0.138000
677, 6760000.000000,0.172913, -1.000000, 0.723114,0.891479, -0.065430, -0.807129,0.095551, 0.177002, -0.138000
678, 6770000.000000,0.172913, -1.000000, 0.723114,0.891479, -0.065430, -0.807129,0.095551, 0.177002, -0.138000
679, 6780000.000000,-0.040192, -1.000000, 0.493347,0.891479, -0.065430, -0.807129,0.095551, 0.177002, -0.138000
680, 6790000.000000,-0.040192, -1.000000, 0.493347,0.999756, 0.149597, -0.383148,0.128540, 0.175964, -0.124390
681, 6800000.000000,-0.040192, -1.000000, 0.493347,0.999756, 0.149597, -0.383148,0.128540, 0.175964, -0.124390
682, 6810000.000000,-0.010254, -0.998840, 0.205597,0.999756, 0.149597, -0.383148,0.128540, 0.175964, -0.124390
683, 6820000.000000,-0.010254, -0.998840, 0.205597,0.999756, 0.149597, -0.383148,0.128540, 0.175964, -0.124390
684, 6830000.000000,0.158112, -0.847839, -0.063965,0.999756, -0.023499, 0.402710,0.136353, 0.174866, -0.103973
685, 6840000.000000,0.158112, -0.847839, -0.063965,0.999756, -0.023499, 0.402710,0.136353, 0.174866, -0.103973
686, 6850000.000000,0.158112, -0.847839, -0.243103,0.999756, -0.023499, 0.402710,0.136353, 0.174866, -0.103973
687, 6860000.000000,0.309937, -0.396210, -0.243103,0.999756, -0.023499, 0.402710,0.136353, 0.174866, -0.103973
688, 6870000.000000,0.309937, -0.396210, -0.243103,0.999756, -0.023499, 0.402710,0.136353, 0.174866, -0.103973
689, 6880000.000000,0.375031, 0.018677, -0.275269,0.999756, -0.249084, 0.413879,0.136871, 0.179077, -0.104706
690, 6890000.000000,0.375031, 0.018677, -0.275269,0.999756, -0.249084, 0.413879,0.136871, 0.179077, -0.104706
691, 6900000.000000,0.375031, 0.018677, -0.242004,0.999756, -0.249084, 0.413879,0.136871, 0.179077, -0.104706
692, 6910000.000000,0.297363, 0.620422, -0.242004,0.999756, -0.249084, 0.413879,0.136871, 0.179077, -0.104706
693, 6920000.000000,0.297363, 0.620422, -0.242004,0.999756, 0.120483, 0.662079,0.124695, 0.182343, -0.127960
694, 6930000.000000,-0.063904, 0.985474, -0.332214,0.999756, 0.120483, 0.662079,0.124695, 0.182343, -0.127960
695, 6940000.000000,-0.063904, 0.985474, -0.332214,0.999756, 0.120483, 0.662079,0.124695, 0.182343, -0.127960
696, 6950000.000000,-0.477966, 0.989258, -0.512634,0.999756, 0.120483, 0.662079,0.124695, 0.182343, -0.127960
697, 6960000.000000,-0.480469, 0.989258, -0.512634,0.999756, 0.120483, 0.662079,0.124695, 0.182343, -0.127960
698, 6970000.000000,-0.480469, 0.989258, -0.512634,0.190979, -0.542145, -0.816437,0.107208, 0.176147, -0.146240
699, 6980000.000000,-0.772614, 0.989258, -0.196259,0.190979, -0.542145, -0.816437,0.107208, 0.176147, -0.146240
700, 6990000.000000,-0.772614, 0.989258, -0.196259,0.190979, -0.542145, -0.816437,0.107208, 0.176147, -0.146240
701, 7000000.000000,-0.721436, 0.821655, 0.225952,0.190979, -0.542145, -0.816437,0.107208, 0.176147, -0.146240
702, 7010000.000000,-0.721436, 0.821655, 0.225952,0.190979, 0.984772, -0.107361,0.089478, 0.168976, -0.158569
703, 7020000.000000,-0.721436, 0.821655, 0.225952,0.127716, 0.984772, -0.107361,0.089478, 0.168976, -0.158569
704, 7030000.000000,-0.072449, 0.370667, 0.122498,0.127716, 0.984772, -0.107361,0.089478, 0.168976, -0.158569
705, 7040000.000000,-0.072449, 0.370667, 0.122498,0.127716, 0.984772, -0.107361,0.089478, 0.168976, -0.158569
706, 7050000.000000,-0.822601, 0.171967, -0.115417,0.127716, 0.031647, -0.003082,0.091003, 0.162140, -0.170776
707, 7060000.000000,-0.822601, 0.171967, -0.115417,0.115631, 0.036835, -0.003082,0.091003, 0.162140, -0.170776
708, 7070000.000000,-0.328705, 0.111938, 0.050781,0.115631, 0.036835, -0.003082,0.091003, 0.162140, -0.170776
709, 7080000.000000,-0.328705, 0.111938, 0.050781,0.115631, 0.036835, -0.003082,0.091003, 0.162140, -0.170776
710, 7090000.000000,-0.328705, 0.111938, 0.050781,0.115631, 0.036835, -0.003082,0.091003, 0.162140, -0.170776
711, 7100000.000000,-0.162354, 0.142639, -0.094574,0.051361, -0.014130, -0.314606,0.083649, 0.158905, -0.163361
712, 7110000.000000,-0.162354, 0.142639, -0.094574,0.051361, -0.014130, -0.314606,0.083649, 0.158905, -0.163361
713, 7120000.000000,-0.127411, -0.155823, -0.048248,0.051361, -0.014130, -0.314606,0.083649, 0.158905, -0.163361
714, 7130000.000000,-0.127411, -0.155823, -0.048248,0.051361, -0.014130, -0.314606,0.083649, 0.158905, -0.163361
715, 7140000.000000,-0.127411, -0.155823, -0.048248,0.051361, -0.014130, -0.341248,0.088654, 0.154266, -0.166473
716, 7150000.000000,-0.040161, 0.054474, -0.021454,0.027161, 0.023132, -0.341248,0.088654, 0.154266, -0.166473
717, 7160000.000000,-0.040161, 0.054474, -0.021454,0.027161, 0.023132, -0.341248,0.088654, 0.154266, -0.166473
718, 7170000.000000,-0.054993, -0.083679, -0.037933,0.027161, 0.023132, -0.341248,0.088654, 0.154266, -0.166473
719, 7180000.000000,-0.054993, -0.083679, -0.037933,0.027161, 0.023132, -0.341248,0.088654, 0.154266, -0.166473
720, 7190000.000000,-0.054993, -0.083679, -0.037933,0.026062, 0.004089, -0.271729,0.091278, 0.156250, -0.172272
721, 7200000.000000,-0.011993, 0.018616, 0.008362,0.026062, 0.004089, -0.271729,0.091278, 0.156250, -0.172272
722, 7210000.000000,-0.011993, 0.018616, 0.008362,0.026062, 0.004089, -0.271729,0.091278, 0.156250, -0.172272
723, 7220000.000000,0.032379, 0.126190, 0.017090,0.026062, 0.004089, -0.271729,0.091278, 0.156250, -0.172272
724, 7230000.000000,0.032379, 0.126190, 0.017090,0.026062, 0.004089, -0.271729,0.091278, 0.156860, -0.172119
725, 7240000.000000,0.032379, 0.126190, 0.076996,-0.062469, -0.055939, -0.265656,0.087585, 0.156860, -0.172119
726, 7250000.000000,0.037079, 0.212555, 0.076996,-0.062469, -0.055939, -0.265656,0.087585, 0.156860, -0.172119
727, 7260000.000000,0.037079, 0.212555, 0.076996,-0.062469, -0.055939, -0.265656,0.087585, 0.156860, -0.172119
728, 7270000.000000,0.052490, 0.209747, 0.066193,-0.062469, -0.055939, -0.265656,0.087585, 0.156860, -0.172119
729, 7280000.000000,0.052490, 0.209747, 0.066193,-0.009094, -0.059082, -0.277740,0.082214, 0.157715, -0.169434
730, 7290000.000000,0.052490, 0.225372, 0.064026,-0.009094, -0.059082, -0.277740,0.082214, 0.157715, -0.169434
731, 7300000.000000,0.065918, 0.219788, 0.064026,-0.009094, -0.059082, -0.277740,0.082214, 0.157715, -0.169434
732, 7310000.000000,0.065918, 0.219788, 0.064026,-0.009094, -0.059082, -0.277740,0.082214, 0.157715, -0.169434
733, 7320000.000000,0.070648, 0.315979, 0.044739,-0.009094, -0.059082, -0.277740,0.074402, 0.156433, -0.176819
734, 7330000.000000,0.070648, 0.315979, 0.044739,-0.109314, -0.047577, -0.338745,0.071777, 0.156433, -0.176819
735, 7340000.000000,-0.007477, 0.469055, -0.027618,-0.109314, -0.047577, -0.338745,0.071777, 0.156433, -0.176819
736, 7350000.000000,-0.006744, 0.469055, -0.027618,-0.109314, -0.047577, -0.338745,0.071777, 0.156433, -0.176819
737, 7360000.000000,-0.006744, 0.469055, -0.027618,-0.109314, -0.047577, -0.338745,0.071777, 0.156433, -0.176819
738, 7370000.000000,-0.020905, 0.900452, -0.118073,-0.388916, -0.159119, -0.597809,0.057922, 0.157532, -0.169464
739, 7380000.000000,-0.020905, 0.900452, -0.118073,-0.388916, -0.159119, -0.597809,0.057922, 0.157532, -0.169464
740, 7390000.000000,0.044708, 0.979736, -0.202240,-0.388916, -0.159119, -0.597809,0.057922, 0.157532, -0.169464
741, 7400000.000000,0.044708, 0.979736, -0.202240,-0.388916, -0.159119, -0.597809,0.057922, 0.157532, -0.169464
742, 7410000.000000,0.044708, 0.979736, -0.202240,-0.388916, -0.159119, -0.597809,0.057922, 0.157532, -0.156799
743, 7420000.000000,0.637756, 0.989258, -0.481689,-0.385223, -0.100586, -0.724304,0.012939, 0.162170, -0.156799
744, 7430000.000000,0.637756, 0.989258, -0.481689,-0.385223, -0.100586, -0.724304,0.012939, 0.162170, -0.156799
745, 7440000.000000,0.787872, 0.989258, -0.662079,-0.385223, -0.100586, -0.724304,0.012939, 0.162170, -0.156799
746, 7450000.000000,0.787872, 0.989258, -0.662079,-0.385223, -0.100586, -0.724304,0.012939, 0.162170, -0.156799
747, 7460000.000000,0.787872, 0.989258, -0.662079,0.372192, -0.495422, 0.780243,-0.047272, 0.160797, -0.109863
748, 7470000.000000,0.639801, 0.989258, -0.680420,0.372192, -0.495422, 0.780243,-0.047272, 0.160797, -0.109863
749, 7480000.000000,0.639801, 0.989258, -0.680420,0.372192, -0.495422, 0.780243,-0.047272, 0.160797, -0.109863
750, 7490000.000000,0.407227, 0.937958, -0.117065,0.372192, -0.495422, 0.780243,-0.047272, 0.160797, -0.109863
751, 7500000.000000,0.407227, 0.937958, -0.117065,-0.284485, -0.371185, -0.998871,-0.045685, 0.160065, -0.092102
752, 7510000.000000,0.068481, 0.969299, 0.104523,-0.284485, -0.371185, -0.998871,-0.045685, 0.160065, -0.092102
753, 7520000.000000,0.068481, 0.969299, 0.104523,-0.284485, -0.371185, -0.998871,-0.045685, 0.160065, -0.092102
754, 7530000.000000,0.068481, 0.969299, 0.104523,-0.284485, -0.371185, -0.998871,-0.045685, 0.160065, -0.092102
755, 7540000.000000,0.180725, 0.817322, 0.301697,-0.284485, -0.371185, -0.998871,-0.045685, 0.160065, -0.092102
756, 7550000.000000,0.180725, 0.817322, 0.301697,-0.152191, 0.174500, -0.839600,-0.043823, 0.163727, -0.074066
757, 7560000.000000,0.081940, 0.657349, 0.153229,-0.152191, 0.174500, -0.839600,-0.043823, 0.163727, -0.074066
758, 7570000.000000,0.081940, 0.657349, 0.153229,-0.152191, 0.174500, -0.839600,-0.043823, 0.163727, -0.074066
759, 7580000.000000,0.081940, 0.657349, 0.153229,-0.152191, 0.174500, -0.839600,-0.043823, 0.163727, -0.074066
760, 7590000.000000,0.322021, 0.822693, -0.002808,-0.199066, 0.256653, -0.767731,-0.038818, 0.162903, -0.047089
761, 7600000.000000,0.322021, 0.822693, -0.002808,-0.197266, 0.256653, -0.767731,-0.038818, 0.162903, -0.047089
762, 7610000.000000,0.561554, 0.954163, -0.294342,-0.197266, 0.256653, -0.767731,-0.038818, 0.162903, -0.047089
763, 7620000.000000,0.561554, 0.954163, -0.294342,-0.197266, 0.256653, -0.767731,-0.038818, 0.162903, -0.047089
764, 7630000.000000,0.561554, 0.954163, -0.591217,-0.197266, 0.256653, -0.767731,-0.038818, 0.162903, -0.047089
765, 7640000.000000,0.488190, 0.921539, -0.587555,-0.252350, -0.029297, -0.983673,-0.033997, 0.157623, -0.045563
766, 7650000.000000,0.488190, 0.921539, -0.587555,-0.252350, -0.029297, -0.983673,-0.033997, 0.157623, -0.045563
767, 7660000.000000,0.326935, 0.744141, -0.712219,-0.252350, -0.029297, -0.983673,-0.033997, 0.157623, -0.045563
768, 7670000.000000,0.326935, 0.744141, -0.712219,-0.252350, -0.029297, -0.983673,-0.033997, 0.157623, -0.045563
769, 7680000.000000,0.326935, 0.744141, -0.750732,-0.252350, -0.170013, -0.922119,-0.034241, 0.149872, -0.041931
770, 7690000.000000,0.169312, 0.508698, -0.750732,-0.309814, -0.170013, -0.922119,-0.034241, 0.149872, -0.041931
771, 7700000.000000,0.169312, 0.508698, -0.750732,-0.309814, -0.170013, -0.922119,-0.034241, 0.149872, -0.041931
772, 7710000.000000,-0.006989, 0.299133, -0.728577,-0.309814, -0.170013, -0.922119,-0.034241, 0.149872, -0.041931
773, 7720000.000000,-0.006989, 0.299133, -0.728577,-0.309814, -0.170013, -0.922119,-0.034241, 0.134247, -0.036621
774, 7730000.000000,-0.235596, 0.192993, -0.733612,-0.395813, -0.253296, -0.722107,-0.034454, 0.139191, -0.036621
775, 7740000.000000,-0.235596, 0.192993, -0.733612,-0.395813, -0.253296, -0.722107,-0.034454, 0.139191, -0.036621
776, 7750000.000000,-0.235596, 0.192993, -0.733612,-0.395813, -0.253296, -0.722107,-0.034454, 0.139191, -0.036621
777, 7760000.000000,-0.601196, 0.084534, -0.686615,-0.395813, -0.253296, -0.722107,-0.034454, 0.139191, -0.036621
778, 7770000.000000,-0.601196, 0.084534, -0.686615,-0.668854, -0.568481, -0.688538,-0.032288, 0.132538, -0.025085
779, 7780000.000000,-0.536194, -0.081543, -0.477997,-0.668854, -0.568481, -0.688538,-0.032288, 0.132538, -0.025085
780, 7790000.000000,-0.536194, -0.081543, -0.477997,-0.668854, -0.568481, -0.688538,-0.032288, 0.132538, -0.025085
781, 7800000.000000,-0.536194, -0.081543, -0.147552,-0.668854, -0.568481, -0.688538,-0.032288, 0.132538, -0.025085
782, 7810000.000000,-0.464783, -0.305756, -0.147552,-0.668854, -0.568481, -0.688538,-0.032288, 0.132538, -0.046051
783, 7820000.000000,-0.464783, -0.305756, -0.147552,-0.519897, -0.245605, -0.528168,-0.026886, 0.128418, -0.046051
784, 7830000.000000,-0.397308, -0.586487, -0.030731,-0.519897, -0.245605, -0.528168,-0.026886, 0.128418, -0.046051
785, 7840000.000000,-0.397308, -0.586487, -0.030731,-0.519897, -0.245605, -0.528168,-0.026886, 0.128418, -0.046051
786, 7850000.000000,-0.397308, -0.844299, -0.005737,-0.519897, -0.245605, -0.528168,-0.026886, 0.128418, -0.046051
787, 7860000.000000,-0.234344, -0.845367, -0.005737,-0.367493, -0.027222, -0.478271,-0.028656, 0.126160, -0.048309
788, 7870000.000000,-0.234344, -0.845367, -0.005737,-0.367493, -0.027222, -0.478271,-0.028656, 0.126160, -0.048309
789, 7880000.000000,-0.029968, -0.991302, -0.053833,-0.367493, -0.027222, -0.478271,-0.028656, 0.126160, -0.048309
790, 7890000.000000,-0.029968, -0.991302, -0.053833,-0.367493, -0.027222, -0.478271,-0.028656, 0.126160, -0.048309
791, 7900000.000000,0.118469, -1.000000, -0.120056,-0.367493, -0.027222, -0.478271,-0.028656, 0.126160, -0.071747
792, 7910000.000000,0.118866, -1.000000, -0.120056,-0.087494, -0.088409, -0.443542,-0.031281, 0.129333, -0.076355
793, 7920000.000000,0.118866, -1.000000, -0.120056,-0.087494, -0.088409, -0.443542,-0.031281, 0.129333, -0.076355
794, 7930000.000000,0.176056, -1.000000, -0.156311,-0.087494, -0.088409, -0.443542,-0.031281, 0.129333, -0.076355
795, 7940000.000000,0.176056, -1.000000, -0.156311,-0.087494, -0.088409, -0.443542,-0.031281, 0.129333, -0.076355
796, 7950000.000000,0.159851, -1.000000, -0.103882,0.094055, -0.337524, -0.367249,-0.026398, 0.130157, -0.092255
797, 7960000.000000,0.159851, -1.000000, -0.103882,0.094055, -0.337524, -0.367249,-0.026398, 0.130157, -0.092255
798, 7970000.000000,0.159851, -1.000000, -0.103882,0.094055, -0.337524, -0.367249,-0.026398, 0.130157, -0.092255
799, 7980000.000000,0.088654, -1.000000, 0.125885,0.094055, -0.337524, -0.367249,-0.026398, 0.130157, -0.092255
800, 7990000.000000,0.088654, -1.000000, 0.125885,0.094055, -0.337524, -0.367249,-0.026398, 0.130157, -0.092255
801, 8000000.000000,0.128845, -1.000000, 0.283539,0.322998, -0.379303, -0.407196,-0.010895, 0.136505, -0.114777
802, 8010000.000000,0.128845, -1.000000, 0.283539,0.322998, -0.379303, -0.407196,-0.010895, 0.136505, -0.114777
803, 8020000.000000,0.128845, -1.000000, 0.283539,0.322998, -0.379303, -0.407196,-0.010895, 0.136505, -0.114777
804, 8030000.000000,0.280914, -1.000000, 0.308167,0.322998, -0.379303, -0.407196,-0.010895, 0.136505, -0.114777
805, 8040000.000000,0.280914, -1.000000, 0.308167,0.276123, -0.116913, -0.530853,0.010498, 0.140594, -0.125458
806, 8050000.000000,0.376282, -1.000000, 0.374207,0.276428, -0.116913, -0.530853,0.010498, 0.140594, -0.125458
807, 8060000.000000,0.376282, -1.000000, 0.374207,0.276428, -0.116913, -0.530853,0.010498, 0.140594, -0.125458
808, 8070000.000000,0.376282, -1.000000, 0.374207,0.276428, -0.116913, -0.530853,0.010498, 0.140594, -0.125458
809, 8080000.000000,0.459442, -1.000000, 0.366608,0.276428, -0.116913, -0.530853,0.010498, 0.140594, -0.125458
810, 8090000.000000,0.459442, -1.000000, 0.366608,0.359772, 0.154907, -0.532806,0.041595, 0.150635, -0.136353
811, 8100000.000000,0.577820, -1.000000, 0.285339,0.359772, 0.154907, -0.532806,0.041595, 0.150635, -0.136353
812, 8110000.000000,0.577820, -1.000000, 0.285339,0.359772, 0.154907, -0.532806,0.041595, 0.150635, -0.136353
813, 8120000.000000,0.577820, -1.000000, 0.285339,0.359772, 0.154907, -0.532806,0.041595, 0.150635, -0.136353
814, 8130000.000000,0.674377, -1.000000, 0.206818,0.359772, -0.006714, -0.712952,0.069305, 0.165741, -0.127808
815, 8140000.000000,0.674377, -1.000000, 0.206818,0.444763, -0.006714, -0.712952,0.069305, 0.165741, -0.127808
816, 8150000.000000,0.682251, -1.000000, 0.211792,0.444763, -0.006714, -0.712952,0.069305, 0.165741, -0.127808
817, 8160000.000000,0.682251, -1.000000, 0.211792,0.444763, -0.006714, -0.712952,0.069305, 0.165741, -0.127808
818, 8170000.000000,0.682251, -1.000000, 0.308929,0.444763, -0.006714, -0.712952,0.069305, 0.165741, -0.127808
819, 8180000.000000,0.593475, -1.000000, 0.308929,0.646790, -0.161682, -0.884247,0.089508, 0.171204, -0.112305
820, 8190000.000000,0.593475, -1.000000, 0.308929,0.646790, -0.161682, -0.884247,0.089508, 0.171204, -0.112305
821, 8200000.000000,0.472565, -1.000000, 0.438171,0.646790, -0.161682, -0.884247,0.089508, 0.171204, -0.112305
822, 8210000.000000,0.472565, -1.000000, 0.438171,0.646790, -0.161682, -0.884247,0.089508, 0.171204, -0.112305
823, 8220000.000000,0.407074, -1.000000, 0.566956,0.855499, -0.162537, -0.890900,0.113342, 0.172607, -0.095856
824, 8230000.000000,0.407074, -1.000000, 0.566956,0.855499, -0.162537, -0.890900,0.113342, 0.172607, -0.095856
825, 8240000.000000,0.407074, -1.000000, 0.566956,0.855499, -0.162537, -0.890900,0.113342, 0.172607, -0.095856
826, 8250000.000000,0.390747, -1.000000, 0.657959,0.855499, -0.162537, -0.890900,0.113342, 0.172607, -0.095856
827, 8260000.000000,0.390747, -1.000000, 0.657959,0.855499, -0.162537, -0.890900,0.113342, 0.164795, -0.076935
828, 8270000.000000,0.478943, -1.000000, 0.670563,0.911591, 0.064270, -0.652832,0.142365, 0.167389, -0.076935
829, 8280000.000000,0.478943, -1.000000, 0.670563,0.911591, 0.064270, -0.652832,0.142365, 0.167389, -0.076935
830, 8290000.000000,0.478943, -1.000000, 0.631500,0.911591, 0.064270, -0.652832,0.142365, 0.167389, -0.076935
831, 8300000.000000,0.670959, -0.998566, 0.626434,0.911591, 0.064270, -0.652832,0.142365, 0.167389, -0.076935
832, 8310000.000000,0.670959, -0.998566, 0.626434,0.999756, -0.152802, -0.046692,0.156830, 0.161743, -0.059753
833, 8320000.000000,0.205719, -0.801178, 0.453766,0.999756, -0.152802, -0.046692,0.156830, 0.161743, -0.059753
834, 8330000.000000,0.205719, -0.801178, 0.453766,0.999756, -0.152802, -0.046692,0.156830, 0.161743, -0.059753
835, 8340000.000000,0.205719, -0.402740, 0.383423,0.999756, -0.152802, -0.046692,0.156830, 0.161743, -0.059753
836, 8350000.000000,-0.034790, -0.400787, 0.383423,0.999756, -0.152802, -0.046692,0.156830, 0.161743, -0.048309
837, 8360000.000000,-0.034790, -0.400787, 0.383423,0.999756, 0.180359, 0.387634,0.161438, 0.157410, -0.048309
838, 8370000.000000,0.194458, -0.128418, 0.225739,0.999756, 0.180359, 0.387634,0.161438, 0.157410, -0.048309
839, 8380000.000000,0.194458, -0.128418, 0.225739,0.999756, 0.180359, 0.387634,0.161438, 0.157410, -0.048309
840, 8390000.000000,0.521576, 0.296295, 0.024414,0.999756, 0.180359, 0.387634,0.161438, 0.157410, -0.048309
841, 8400000.000000,0.521576, 0.296295, 0.024414,0.999756, -0.026642, 0.129120,0.152618, 0.156586, -0.047577
842, 8410000.000000,0.521576, 0.296295, 0.024414,0.999756, -0.026642, 0.129120,0.152618, 0.156586, -0.047577
843, 8420000.000000,0.571442, 0.587097, -0.056885,0.999756, -0.026642, 0.129120,0.152618, 0.156586, -0.047577
844, 8430000.000000,0.571442, 0.587097, -0.056885,0.999756, -0.026642, 0.129120,0.152618, 0.156586, -0.047577
845, 8440000.000000,0.467926, 0.791901, -0.077209,0.999756, -0.026642, 0.129120,0.144806, 0.154083, -0.056671
846, 8450000.000000,0.467926, 0.791901, -0.077209,0.875610, 0.422668, 0.613922,0.147797, 0.154083, -0.056671
847, 8460000.000000,0.467926, 0.791901, -0.077209,0.875610, 0.422668, 0.613922,0.147797, 0.154083, -0.056671
848, 8470000.000000,0.635040, 0.973389, -0.381195,0.875610, 0.422668, 0.613922,0.147797, 0.154083, -0.056671
849, 8480000.000000,0.635040, 0.973389, -0.381195,0.875610, 0.422668, 0.613922,0.147797, 0.154083, -0.056671
850, 8490000.000000,-0.398102, 0.989258, -0.923004,0.491882, -0.798279, -0.944214,0.118408, 0.133911, -0.094147
851, 8500000.000000,-0.398102, 0.989258, -0.923004,0.491882, -0.798279, -0.944214,0.118408, 0.133911, -0.094147
852, 8510000.000000,-0.398102, 0.989258, -0.149567,0.491882, -0.798279, -0.944214,0.118408, 0.133911, -0.094147
853, 8520000.000000,-0.958496, 0.942383, -0.149963,0.491882, -0.798279, -0.944214,0.118408, 0.133911, -0.094147
854, 8530000.000000,-0.958496, 0.942383, -0.149963,0.491882, -0.798279, -0.944214,0.102783, 0.125977, -0.102539
855, 8540000.000000,0.052307, 0.583282, 0.127472,-0.444580, 0.948853, -0.523499,0.108826, 0.125977, -0.102539
856, 8550000.000000,0.052307, 0.583282, 0.127472,-0.444580, 0.948853, -0.523499,0.108826, 0.125977, -0.102539
857, 8560000.000000,0.052307, 0.583282, -0.227997,-0.444580, 0.948853, -0.523499,0.108826, 0.125977, -0.102539
858, 8570000.000000,-0.584961, 0.300537, -0.227997,-0.444580, 0.948853, -0.523499,0.108826, 0.125977, -0.102539
859, 8580000.000000,-0.584961, 0.300537, -0.227997,-0.305664, 0.031219, -0.076294,0.107819, 0.117981, -0.113983
860, 8590000.000000,-0.366974, -0.080902, 0.110352,-0.305664, 0.031219, -0.076294,0.107819, 0.117981, -0.113983
861, 8600000.000000,-0.366974, -0.080902, 0.110352,-0.305664, 0.031219, -0.076294,0.107819, 0.117981, -0.113983
862, 8610000.000000,-0.366974, 0.179047, -0.014221,-0.305664, 0.031219, -0.076294,0.107819, 0.117981, -0.113983
863, 8620000.000000,-0.106140, 0.179047, -0.014221,-0.305664, 0.031219, -0.076294,0.107819, 0.116852, -0.107544
864, 8630000.000000,-0.106140, 0.179047, -0.014221,-0.031128, 0.017303, -0.185699,0.109924, 0.116852, -0.107544
865, 8640000.000000,-0.088501, -0.152710, -0.032288,-0.031128, 0.017303, -0.185699,0.109924, 0.116852, -0.107544
866, 8650000.000000,-0.088501, -0.152710, -0.032288,-0.031128, 0.017303, -0.185699,0.109924, 0.116852, -0.107544
867, 8660000.000000,-0.050171, 0.052338, -0.054565,-0.031128, 0.017303, -0.185699,0.109924, 0.116852, -0.107544
868, 8670000.000000,-0.050171, 0.052338, -0.054565,0.036072, 0.032349, -0.282318,0.110901, 0.116699, -0.108765
869, 8680000.000000,-0.050171, 0.052338, -0.054565,0.036072, 0.032349, -0.282318,0.110901, 0.116699, -0.108765
870, 8690000.000000,-0.047882, -0.065979, 0.030853,0.036072, 0.032349, -0.282318,0.110901, 0.116699, -0.108765
871, 8700000.000000,-0.047882, -0.065979, 0.030853,0.036072, 0.032349, -0.282318,0.110901, 0.116699, -0.108765
872, 8710000.000000,-0.029907, -0.028259, -0.010651,0.036072, 0.032349, -0.251068,0.108948, 0.110504, -0.116547
873, 8720000.000000,-0.029907, -0.028259, -0.010651,-0.065979, -0.006622, -0.257172,0.108948, 0.110504, -0.116547
874, 8730000.000000,-0.029907, -0.028259, 0.026245,-0.065979, -0.006622, -0.257172,0.108948, 0.110504, -0.116547
875, 8740000.000000,0.004883, 0.015778, 0.026245,-0.065979, -0.006622, -0.257172,0.108948, 0.110504, -0.116547
876, 8750000.000000,0.004883, 0.015778, 0.026245,-0.065979, -0.006622, -0.257172,0.108948, 0.110504, -0.116547
877, 8760000.000000,0.047424, 0.121979, 0.027985,0.000031, -0.052094, -0.290375,0.108276, 0.113739, -0.101837
878, 8770000.000000,0.047424, 0.121979, 0.027985,0.000031, -0.052094, -0.290375,0.108276, 0.113739, -0.101837
879, 8780000.000000,0.047424, 0.107117, 0.073700,0.000031, -0.052094, -0.290375,0.108276, 0.113739, -0.101837
880, 8790000.000000,0.057434, 0.107117, 0.073700,0.000031, -0.052094, -0.290375,0.108276, 0.113739, -0.101837
881, 8800000.000000,0.057434, 0.107117, 0.073700,0.000031, -0.052094, -0.259125,0.106567, 0.116669, -0.109283
882, 8810000.000000,0.058838, 0.197449, 0.062836,-0.008179, -0.025055, -0.261749,0.106567, 0.116669, -0.109283
883, 8820000.000000,0.058838, 0.197449, 0.062836,-0.008179, -0.025055, -0.261749,0.106567, 0.116669, -0.109283
884, 8830000.000000,0.066650, 0.317566, 0.074097,-0.008179, -0.025055, -0.261749,0.106567, 0.116669, -0.109283
885, 8840000.000000,0.069458, 0.317566, 0.074097,-0.008179, -0.025055, -0.261749,0.106567, 0.116669, -0.109283
886, 8850000.000000,0.069458, 0.317566, 0.074097,-0.289795, 0.119751, -0.329956,0.101471, 0.116058, -0.107666
887, 8860000.000000,0.078491, 0.616150, -0.018433,-0.289795, 0.119751, -0.329956,0.101471, 0.116058, -0.107666
888, 8870000.000000,0.078491, 0.616150, -0.018433,-0.289795, 0.119751, -0.329956,0.101471, 0.116058, -0.107666
889, 8880000.000000,0.113892, 0.965912, -0.220001,-0.289795, 0.119751, -0.329956,0.101471, 0.116058, -0.107666
890, 8890000.000000,0.113892, 0.965912, -0.220001,-0.289795, 0.119751, -0.845581,0.085846, 0.121521, -0.111511
891, 8900000.000000,0.113892, 0.965912, -0.220001,-0.508118, 0.346252, -0.846375,0.080597, 0.121521, -0.111511
892, 8910000.000000,0.465149, 0.989258, -0.326263,-0.508118, 0.346252, -0.846375,0.080597, 0.121521, -0.111511
893, 8920000.000000,0.465149, 0.989258, -0.326263,-0.508118, 0.346252, -0.846375,0.080597, 0.121521, -0.111511
894, 8930000.000000,0.884766, 0.989258, -0.554871,-0.508118, 0.346252, -0.846375,0.080597, 0.121521, -0.111511
895, 8940000.000000,0.884766, 0.989258, -0.554871,0.009735, -0.141144, -0.233826,0.037994, 0.123718, -0.114044
896, 8950000.000000,0.884766, 0.989258, -0.554871,0.009735, -0.141144, -0.233826,0.037994, 0.123718, -0.114044
897, 8960000.000000,0.871429, 0.989258, -0.689178,0.009735, -0.141144, -0.233826,0.037994, 0.123718, -0.114044
898, 8970000.000000,0.871429, 0.989258, -0.689178,0.009735, -0.141144, -0.233826,0.037994, 0.123718, -0.114044
899, 8980000.000000,0.762115, 0.985718, -0.653900,0.009735, -0.141144, -0.233826,0.037994, 0.128265, -0.090240
900, 8990000.000000,0.762115, 0.985718, -0.653900,0.963348, -0.724152, -0.496338,-0.000916, 0.128265, -0.090240
901, 9000000.000000,0.762115, 0.985718, -0.653900,0.963348, -0.724152, -0.496338,-0.000916, 0.128265, -0.090240
902, 9010000.000000,0.490662, 0.928802, -0.192078,0.963348, -0.724152, -0.496338,-0.000916, 0.128265, -0.090240
903, 9020000.000000,0.490662, 0.928802, -0.192078,0.963348, -0.724152, -0.496338,-0.000916, 0.128265, -0.090240
904, 9030000.000000,0.220978, 0.988068, -0.227722,-0.032257, -0.303009, -0.999756,-0.012085, 0.131805, -0.081451
905, 9040000.000000,0.220978, 0.988068, -0.227722,-0.032257, -0.303009, -0.999756,-0.012085, 0.131805, -0.081451
906, 9050000.000000,0.220978, 0.988068, 0.002289,-0.032257, -0.303009, -0.999756,-0.012085, 0.131805, -0.081451
907, 9060000.000000,0.194153, 0.910645, 0.002289,-0.032257, -0.303009, -0.999756,-0.012085, 0.131805, -0.081451
908, 9070000.000000,0.194153, 0.910645, 0.002289,-0.032257, -0.303009, -0.999756,-0.012085, 0.139618, -0.069489
909, 9080000.000000,0.030792, 0.707214, -0.018799,-0.253510, 0.036377, -0.752350,-0.016174, 0.136566, -0.069489
910, 9090000.000000,0.030792, 0.707214, -0.018799,-0.253510, 0.036377, -0.752350,-0.016174, 0.136566, -0.069489
911, 9100000.000000,0.030792, 0.746277, -0.113922,-0.253510, 0.036377, -0.752350,-0.016174, 0.136566, -0.069489
912, 9110000.000000,0.075836, 0.745209, -0.113922,-0.253510, 0.036377, -0.752350,-0.016174, 0.136566, -0.069489
913, 9120000.000000,0.075836, 0.745209, -0.113922,-0.202118, 0.078857, -0.695648,-0.023468, 0.132599, -0.060303
914, 9130000.000000,0.313202, 0.900208, -0.227325,-0.202118, 0.078857, -0.695648,-0.023468, 0.132599, -0.060303
915, 9140000.000000,0.313202, 0.900208, -0.227325,-0.202118, 0.078857, -0.695648,-0.023468, 0.132599, -0.060303
916, 9150000.000000,0.432343, 0.910980, -0.387909,-0.202118, 0.078857, -0.695648,-0.023468, 0.132599, -0.060303
917, 9160000.000000,0.432343, 0.910980, -0.387909,-0.357544, 0.026672, -0.879120,-0.029358, 0.125885, -0.049896
918, 9170000.000000,0.432343, 0.770355, -0.555664,-0.357544, 0.026672, -0.879120,-0.029358, 0.125885, -0.049896
919, 9180000.000000,0.319366, 0.767670, -0.555664,-0.357544, 0.026672, -0.879120,-0.029358, 0.125885, -0.049896
920, 9190000.000000,0.319366, 0.767670, -0.555664,-0.357544, 0.026672, -0.879120,-0.029358, 0.125885, -0.049896
921, 9200000.000000,0.212341, 0.593048, -0.625702,-0.357544, 0.026672, -0.879120,-0.029358, 0.125885, -0.049896
922, 9210000.000000,0.212341, 0.593048, -0.625702,-0.327179, -0.197388, -0.944427,-0.034485, 0.119385, -0.053864
923, 9220000.000000,0.212341, 0.404297, -0.598816,-0.327179, -0.197388, -0.944427,-0.034485, 0.119385, -0.053864
924, 9230000.000000,0.090271, 0.404297, -0.598816,-0.327179, -0.197388, -0.944427,-0.034485, 0.119385, -0.053864
925, 9240000.000000,0.090271, 0.404297, -0.598816,-0.327179, -0.197388, -0.944427,-0.034485, 0.119385, -0.053864
926, 9250000.000000,-0.042908, 0.214661, -0.511627,-0.327179, -0.306366, -0.829102,-0.037292, 0.111664, -0.056091
927, 9260000.000000,-0.042908, 0.214661, -0.511627,-0.407593, -0.306366, -0.829102,-0.037292, 0.111664, -0.056091
928, 9270000.000000,-0.235779, 0.064392, -0.454559,-0.407593, -0.306366, -0.829102,-0.037292, 0.111664, -0.056091
929, 9280000.000000,-0.235779, 0.064392, -0.454559,-0.407593, -0.306366, -0.829102,-0.037292, 0.111664, -0.056091
930, 9290000.000000,-0.235779, 0.064392, -0.454559,-0.407593, -0.306366, -0.829102,-0.037292, 0.111664, -0.056091
931, 9300000.000000,-0.367523, -0.121857, -0.234589,-0.524231, -0.394623, -0.691864,-0.037964, 0.111206, -0.063232
932, 9310000.000000,-0.367523, -0.121857, -0.234589,-0.524231, -0.394623, -0.691864,-0.037964, 0.111206, -0.063232
933, 9320000.000000,-0.427429, -0.340393, 0.022827,-0.524231, -0.394623, -0.691864,-0.037964, 0.111206, -0.063232
934, 9330000.000000,-0.427429, -0.340393, 0.022827,-0.524231, -0.394623, -0.691864,-0.037964, 0.111206, -0.063232
935, 9340000.000000,-0.449127, -0.603394, 0.146881,-0.386505, -0.134888, -0.570801,-0.037323, 0.102875, -0.078461
936, 9350000.000000,-0.449127, -0.603394, 0.146881,-0.386505, -0.134888, -0.570801,-0.037323, 0.102875, -0.078461
937, 9360000.000000,-0.449127, -0.603394, 0.146881,-0.386505, -0.134888, -0.570801,-0.037323, 0.102875, -0.078461
938, 9370000.000000,-0.374573, -0.863281, 0.156311,-0.386505, -0.134888, -0.570801,-0.037323, 0.102875, -0.078461
939, 9380000.000000,-0.374573, -0.863281, 0.156311,-0.386505, -0.134888, -0.602051,-0.031769, 0.098938, -0.100220
940, 9390000.000000,-0.266937, -0.993256, 0.082977,-0.212494, -0.000549, -0.603516,-0.031769, 0.098938, -0.100220
941, 9400000.000000,-0.266937, -0.993256, 0.082977,-0.212494, -0.000549, -0.603516,-0.031769, 0.098938, -0.100220
942, 9410000.000000,-0.266937, -0.993256, 0.082977,-0.212494, -0.000549, -0.603516,-0.031769, 0.098938, -0.100220
943, 9420000.000000,-0.149628, -1.000000, -0.009155,-0.212494, -0.000549, -0.603516,-0.031769, 0.098938, -0.100220
944, 9430000.000000,-0.149628, -1.000000, -0.009155,0.069458, -0.104248, -0.557404,-0.025726, 0.088715, -0.121887
945, 9440000.000000,-0.080383, -1.000000, -0.079620,0.069458, -0.104248, -0.557404,-0.025726, 0.088715, -0.121887
946, 9450000.000000,-0.080383, -1.000000, -0.079620,0.069458, -0.104248, -0.557404,-0.025726, 0.088715, -0.121887
947, 9460000.000000,-0.080383, -1.000000, -0.079620,0.069458, -0.104248, -0.557404,-0.025726, 0.088715, -0.121887
948, 9470000.000000,-0.062012, -1.000000, -0.098297,0.069458, -0.104248, -0.557404,0.005524, 0.089294, -0.145966
949, 9480000.000000,-0.062012, -1.000000, -0.098297,0.215271, -0.282349, -0.295135,0.004150, 0.089294, -0.145966
950, 9490000.000000,-0.046021, -1.000000, -0.056183,0.215271, -0.282349, -0.295135,0.004150, 0.089294, -0.145966
951, 9500000.000000,-0.046021, -1.000000, -0.056183,0.215271, -0.282349, -0.295135,0.004150, 0.089294, -0.145966
952, 9510000.000000,-0.046021, -1.000000, 0.037567,0.215271, -0.282349, -0.295135,0.004150, 0.089294, -0.145966
953, 9520000.000000,0.031006, -1.000000, 0.037689,0.282867, -0.286469, -0.423096,0.037872, 0.090210, -0.154022
954, 9530000.000000,0.031006, -1.000000, 0.037689,0.282867, -0.286469, -0.423096,0.037872, 0.090210, -0.154022
955, 9540000.000000,0.157898, -1.000000, 0.142578,0.282867, -0.286469, -0.423096,0.037872, 0.090210, -0.154022
956, 9550000.000000,0.157898, -1.000000, 0.142578,0.282867, -0.286469, -0.423096,0.037872, 0.090210, -0.154022
957, 9560000.000000,0.293091, -1.000000, 0.242706,0.390228, -0.192474, -0.612152,0.071472, 0.100922, -0.150085
958, 9570000.000000,0.293091, -1.000000, 0.242706,0.390228, -0.192474, -0.612152,0.071472, 0.100922, -0.150085
959, 9580000.000000,0.394714, -1.000000, 0.328278,0.390228, -0.192474, -0.612152,0.071472, 0.100922, -0.150085
960, 9590000.000000,0.394714, -1.000000, 0.328278,0.390228, -0.192474, -0.612152,0.071472, 0.100922, -0.150085
961, 9600000.000000,0.394714, -1.000000, 0.328278,0.460541, 0.028839, -0.525818,0.105957, 0.113129, -0.133057
962, 9610000.000000,0.463837, -1.000000, 0.374786,0.454681, 0.028839, -0.525818,0.105957, 0.113129, -0.133057
963, 9620000.000000,0.463837, -1.000000, 0.374786,0.454681, 0.028839, -0.525818,0.105957, 0.113129, -0.133057
964, 9630000.000000,0.523071, -1.000000, 0.371643,0.454681, 0.028839, -0.525818,0.105957, 0.113129, -0.133057
965, 9640000.000000,0.523071, -1.000000, 0.371643,0.454681, 0.028839, -0.525818,0.105957, 0.113129, -0.133057
966, 9650000.000000,0.523071, -1.000000, 0.347351,0.344879, 0.207489, -0.532501,0.143738, 0.125916, -0.111298
967, 9660000.000000,0.615540, -1.000000, 0.347351,0.344879, 0.207489, -0.532501,0.143738, 0.125916, -0.111298
968, 9670000.000000,0.615540, -1.000000, 0.347351,0.344879, 0.207489, -0.532501,0.143738, 0.125916, -0.111298
969, 9680000.000000,0.791046, -1.000000, 0.351318,0.344879, 0.207489, -0.532501,0.143738, 0.125916, -0.111298
970, 9690000.000000,0.791046, -1.000000, 0.351318,0.344879, 0.036926, -0.893280,0.164215, 0.128387, -0.061920
971, 9700000.000000,0.791046, -1.000000, 0.227142,0.544891, 0.036926, -0.893280,0.164215, 0.128387, -0.061920
972, 9710000.000000,0.517944, -1.000000, 0.227142,0.544891, 0.036926, -0.893280,0.164215, 0.128387, -0.061920
973, 9720000.000000,0.517944, -1.000000, 0.227142,0.544891, 0.036926, -0.893280,0.164215, 0.128387, -0.061920
974, 9730000.000000,0.209930, -1.000000, 0.342010,0.544891, 0.036926, -0.893280,0.164215, 0.128387, -0.061920
975, 9740000.000000,0.209930, -1.000000, 0.342010,0.743042, -0.333282, -0.998932,0.175568, 0.117798, -0.028320
976, 9750000.000000,0.006805, -1.000000, 0.484253,0.743042, -0.333282, -0.998932,0.175568, 0.117798, -0.028320
977, 9760000.000000,0.002777, -1.000000, 0.484253,0.743042, -0.333282, -0.998932,0.175568, 0.117798, -0.028320
978, 9770000.000000,0.002777, -1.000000, 0.569153,0.743042, -0.333282, -0.998932,0.175568, 0.117798, -0.028320
979, 9780000.000000,-0.049530, -1.000000, 0.569153,0.990387, -0.235260, -0.704071,0.162689, 0.102600, 0.001648
980, 9790000.000000,-0.049530, -1.000000, 0.569153,0.990387, -0.235260, -0.704071,0.162689, 0.102600, 0.001648
981, 9800000.000000,0.031708, -1.000000, 0.610748,0.990387, -0.235260, -0.704071,0.162689, 0.102600, 0.001648
982, 9810000.000000,0.031708, -1.000000, 0.610748,0.990387, -0.235260, -0.704071,0.162689, 0.102600, 0.001648
983, 9820000.000000,0.219208, -0.994507, 0.436737,0.990387, -0.235260, -0.704071,0.162689, 0.097229, 0.006378
984, 9830000.000000,0.222717, -0.994507, 0.436737,0.999756, -0.004547, 0.078430,0.157318, 0.097229, 0.006378
985, 9840000.000000,0.222717, -0.994507, 0.436737,0.999756, -0.004547, 0.078430,0.157318, 0.097229, 0.006378
986, 9850000.000000,0.410156, -0.773743, 0.235748,0.999756, -0.004547, 0.078430,0.157318, 0.097229, 0.006378
987, 9860000.000000,0.410156, -0.773743, 0.235748,0.999756, -0.004547, 0.078430,0.157318, 0.097229, 0.006378
988, 9870000.000000,0.474915, -0.394012, 0.131897,0.999756, -0.108154, 0.216003,0.145508, 0.092316, 0.003479
989, 9880000.000000,0.474915, -0.394012, 0.131897,0.999756, -0.108154, 0.216003,0.145508, 0.092316, 0.003479
990, 9890000.000000,0.474915, -0.394012, 0.131897,0.999756, -0.108154, 0.216003,0.145508, 0.092316, 0.003479
991, 9900000.000000,0.445465, -0.063293, 0.101013,0.999756, -0.108154, 0.216003,0.145508, 0.092316, 0.003479
992, 9910000.000000,0.445465, -0.063293, 0.101013,0.999756, -0.108154, 0.216003,0.145508, 0.093964, 0.001526
993, 9920000.000000,0.405731, 0.367859, 0.032379,0.999756, 0.054779, 0.268463,0.142151, 0.093964, 0.001526
994, 9930000.000000,0.405731, 0.367859, 0.032379,0.999756, 0.054779, 0.268463,0.142151, 0.093964, 0.001526
995, 9940000.000000,0.405731, 0.367859, 0.032379,0.999756, 0.054779, 0.268463,0.142151, 0.093964, 0.001526
996, 9950000.000000,0.377350, 0.627716, -0.041412,0.999756, 0.054779, 0.268463,0.142151, 0.093964, 0.001526
997, 9960000.000000,0.377350, 0.627716, -0.041412,0.942230, 0.152191, 0.476532,0.142273, 0.093323, -0.005951
998, 9970000.000000,0.407623, 0.835571, -0.073273,0.942230, 0.152191, 0.476532,0.142273, 0.093323, -0.005951
999, 9980000.000000,0.407623, 0.835571, -0.073273,0.942230, 0.152191, 0.476532,0.142273, 0.093323, -0.005951
1000, 9990000.000000,0.407623, 0.835571, -0.073273,0.942230, 0.152191, 0.476532,0.142273, 0.093323, -0.005951
1001, 10000000.000000,0.220032, 0.987427, -0.452820,0.942230, 0.152191, 0.476532,0.142273, 0.096985, -0.030304
1002, 10010000.000000,0.220032, 0.987427, -0.452820,0.253448, -0.511841, -0.469452,0.136139, 0.096985, -0.030304
1003, 10020000.000000,-0.747864, 0.989258, -0.845245,0.253448, -0.511841, -0.469452,0.136139, 0.096985, -0.030304
1004, 10030000.000000,-0.747864, 0.989258, -0.845245,0.253448, -0.511841, -0.469452,0.136139, 0.096985, -0.030304
1005, 10040000.000000,-0.965240, 0.886292, -0.081635,0.253448, -0.511841, -0.469452,0.136139, 0.096985, -0.030304
1006, 10050000.000000,-0.965240, 0.886292, -0.081635,0.965637, 0.888336, -0.832489,0.131989, 0.090088, -0.045746
1007, 10060000.000000,-0.965240, 0.886292, -0.081635,0.965637, 0.888336, -0.832489,0.131989, 0.090088, -0.045746
1008, 10070000.000000,-0.087189, -0.010773, 0.082489,0.965637, 0.888336, -0.832489,0.131989, 0.090088, -0.045746
1009, 10080000.000000,-0.087189, -0.010773, 0.082489,0.965637, 0.888336, -0.832489,0.131989, 0.090088, -0.045746
1010, 10090000.000000,-0.754303, 0.359406, -0.222046,0.965637, 0.888336, 0.025208,0.130005, 0.084015, -0.043091
1011, 10100000.000000,-0.754303, 0.359406, -0.222046,0.236053, -0.163544, 0.025208,0.130005, 0.084015, -0.043091
1012, 10110000.000000,-0.754303, 0.359406, -0.222046,0.236053, -0.163544, 0.025208,0.130005, 0.084015, -0.043091
1013, 10120000.000000,-0.290802, 0.114044, 0.452972,0.236053, -0.163544, 0.025208,0.130005, 0.084015, -0.043091
1014, 10130000.000000,-0.290802, 0.114044, 0.452972,0.236053, -0.163544, 0.025208,0.130005, 0.084015, -0.043091
1015, 10140000.000000,-0.189026, -0.102386, -0.227875,-0.052063, 0.004547, -0.144836,0.131775, 0.083466, -0.046906
1016, 10150000.000000,-0.189026, -0.102386, -0.227875,-0.052063, 0.004547, -0.144836,0.131775, 0.083466, -0.046906
1017, 10160000.000000,-0.189026, -0.102386, -0.227875,-0.052063, 0.004547, -0.144836,0.131775, 0.083466, -0.046906
1018, 10170000.000000,-0.064209, 0.172058, -0.016998,-0.052063, 0.004547, -0.144836,0.131775, 0.083466, -0.046906
1019, 10180000.000000,-0.064209, 0.172058, -0.016998,-0.052063, 0.004547, -0.193634,0.126648, 0.084747, -0.048462
1020, 10190000.000000,-0.087982, -0.191803, -0.056885,-0.057953, -0.017273, -0.193634,0.126648, 0.084747, -0.048462
1021, 10200000.000000,-0.087982, -0.191803, -0.056885,-0.057953, -0.017273, -0.193634,0.126648, 0.084747, -0.048462
1022, 10210000.000000,-0.087982, -0.191803, -0.017242,-0.057953, -0.017273, -0.193634,0.126648, 0.084747, -0.048462
1023, 10220000.000000,-0.041809, 0.075439, -0.017242,-0.057953, -0.017273, -0.193634,0.126648, 0.084747, -0.048462
1024, 10230000.000000,-0.041809, 0.075439, -0.017242,-0.005341, 0.002075, -0.336121,0.132050, 0.086029, -0.038300
1025, 10240000.000000,-0.029572, -0.034027, 0.034607,-0.005341, 0.002075, -0.336121,0.132050, 0.086029, -0.038300
1026, 10250000.000000,-0.029572, -0.034027, 0.034607,-0.005341, 0.002075, -0.336121,0.132050, 0.086029, -0.038300
1027, 10260000.000000,0.013580, 0.070892, -0.076172,-0.005341, 0.002075, -0.336121,0.132050, 0.086029, -0.038300
1028, 10270000.000000,0.013580, 0.070892, -0.076172,0.008514, -0.064911, -0.307281,0.129730, 0.084381, -0.044800
1029, 10280000.000000,0.013580, 0.237427, 0.072693,0.008514, -0.064911, -0.307281,0.129730, 0.084381, -0.044800
1030, 10290000.000000,0.055450, 0.237427, 0.072693,0.008514, -0.064911, -0.307281,0.129730, 0.084381, -0.044800
1031, 10300000.000000,0.055450, 0.237427, 0.072693,0.008514, -0.064911, -0.307281,0.129730, 0.084381, -0.044800
1032, 10310000.000000,0.044678, 0.101746, 0.111633,0.008514, -0.064911, -0.229156,0.127869, 0.083557, -0.049042
1033, 10320000.000000,0.044678, 0.101746, 0.111633,-0.020233, 0.000275, -0.232513,0.127869, 0.083557, -0.049042
1034, 10330000.000000,0.040802, 0.191010, 0.040924,-0.020233, 0.000275, -0.232513,0.127869, 0.083557, -0.049042
1035, 10340000.000000,0.040802, 0.191010, 0.040924,-0.020233, 0.000275, -0.232513,0.127869, 0.083557, -0.049042
1036, 10350000.000000,0.040802, 0.191010, 0.040924,-0.020233, 0.000275, -0.232513,0.127869, 0.083557, -0.049042
1037, 10360000.000000,0.054016, 0.314453, 0.091370,-0.134064, 0.019867, -0.334625,0.128601, 0.084351, -0.049164
1038, 10370000.000000,0.054016, 0.314453, 0.091370,-0.134064, 0.019867, -0.334625,0.128601, 0.084351, -0.049164
1039, 10380000.000000,0.034271, 0.499054, 0.032715,-0.134064, 0.019867, -0.334625,0.128601, 0.084351, -0.049164
1040, 10390000.000000,0.034271, 0.499054, 0.032715,-0.134064, 0.019867, -0.334625,0.128601, 0.084351, -0.049164
1041, 10400000.000000,0.034271, 0.499054, 0.032715,-0.134064, 0.019867, -0.334625,0.120789, 0.085724, -0.059723
1042, 10410000.000000,0.077301, 0.941620, -0.192810,-0.674744, -0.098999, -0.732422,0.122131, 0.085724, -0.059723
1043, 10420000.000000,0.077301, 0.941620, -0.192810,-0.674744, -0.098999, -0.732422,0.122131, 0.085724, -0.059723
1044, 10430000.000000,0.529938, 0.989258, -0.201904,-0.674744, -0.098999, -0.732422,0.122131, 0.085724, -0.059723
1045, 10440000.000000,0.529938, 0.989258, -0.201904,-0.674744, -0.098999, -0.732422,0.122131, 0.085724, -0.059723
1046, 10450000.000000,0.529938, 0.989258, -0.436279,-0.201538, -0.058350, -0.643677,0.096771, 0.092896, -0.069794
1047, 10460000.000000,0.897552, 0.989258, -0.429901,-0.201538, -0.058350, -0.643677,0.096771, 0.092896, -0.069794
1048, 10470000.000000,0.897552, 0.989258, -0.429901,-0.201538, -0.058350, -0.643677,0.096771, 0.092896, -0.069794
1049, 10480000.000000,0.871979, 0.989258, -0.589081,-0.201538, -0.058350, -0.643677,0.096771, 0.092896, -0.069794
1050, 10490000.000000,0.871979, 0.989258, -0.589081,-0.201538, 0.028839, 0.813263,0.067169, 0.098511, -0.079590
1051, 10500000.000000,0.639557, 0.985992, -0.823181,0.356476, 0.028839, 0.813263,0.067169, 0.098511, -0.079590
1052, 10510000.000000,0.639557, 0.985992, -0.823181,0.356476, 0.028839, 0.813263,0.067169, 0.098511, -0.079590
1053, 10520000.000000,0.639557, 0.985992, -0.823181,0.356476, 0.028839, 0.813263,0.067169, 0.098511, -0.079590
1054, 10530000.000000,0.457001, 0.821198, -0.474304,0.356476, 0.028839, 0.813263,0.067169, 0.098511, -0.079590
1055, 10540000.000000,0.457001, 0.821198, -0.474304,-0.250305, -0.173065, -0.994049,0.062469, 0.100372, -0.068604
1056, 10550000.000000,0.220001, 0.966736, -0.714172,-0.250305, -0.173065, -0.994049,0.062469, 0.100372, -0.068604
1057, 10560000.000000,0.220001, 0.966736, -0.714172,-0.250305, -0.173065, -0.994049,0.062469, 0.100372, -0.068604
1058, 10570000.000000,0.220001, 0.966736, -0.714172,-0.250305, -0.173065, -0.994049,0.062469, 0.100372, -0.068604
1059, 10580000.000000,0.250488, 0.749969, -0.532318,-0.250305, -0.055878, -0.867584,0.062714, 0.102600, -0.075317
1060, 10590000.000000,0.250488, 0.749969, -0.532318,-0.107208, -0.062469, -0.867584,0.062714, 0.102600, -0.075317
1061, 10600000.000000,0.056030, 0.470001, -0.619537,-0.107208, -0.062469, -0.867584,0.062714, 0.102600, -0.075317
1062, 10610000.000000,0.056030, 0.470001, -0.619537,-0.107208, -0.062469, -0.867584,0.062714, 0.102600, -0.075317
1063, 10620000.000000,0.056030, 0.470001, -0.619537,-0.107208, -0.062469, -0.867584,0.062714, 0.102600, -0.075317
1064, 10630000.000000,-0.012756, 0.499878, -0.756287,-0.152435, -0.015259, -0.508606,0.062592, 0.103455, -0.062134
1065, 10640000.000000,-0.012756, 0.499878, -0.756287,-0.152435, -0.015259, -0.508606,0.062592, 0.103455, -0.062134
1066, 10650000.000000,0.009705, 0.625183, -0.881958,-0.152435, -0.015259, -0.508606,0.062592, 0.103455, -0.062134
1067, 10660000.000000,0.009705, 0.625183, -0.881958,-0.152435, -0.015259, -0.508606,0.062592, 0.103455, -0.062134
1068, 10670000.000000,0.009705, 0.625183, -0.975708,-0.152435, -0.179321, -0.615875,0.062012, 0.105682, -0.053864
1069, 10680000.000000,0.041595, 0.729218, -0.973450,-0.126587, -0.174530, -0.615875,0.062012, 0.105682, -0.053864
1070, 10690000.000000,0.041595, 0.729218, -0.973450,-0.126587, -0.174530, -0.615875,0.062012, 0.105682, -0.053864
