Index,Time(us), GyroX , GyroY , GyroZ ,AccX , AccY , AccZ , MagX , MagY , MagZ
1, 0.000000,-0.000977, 0.012878, -0.015503,-0.015747, -0.024963, -0.253601,0.088531, 0.143127, 0.003937
2, 10000.000000,-0.000916, 0.013062, -0.015320,-0.015747, -0.024963, -0.253601,0.078644, 0.138367, 0.010254
3, 20000.000000,-0.000916, 0.013062, -0.015320,-0.015686, -0.023254, -0.259644,0.078644, 0.138367, 0.010254
4, 30000.000000,-0.001099, 0.013306, -0.015472,-0.015686, -0.023254, -0.259644,0.078644, 0.138367, 0.010254
5, 40000.000000,-0.001099, 0.013306, -0.015472,-0.015686, -0.023254, -0.259644,0.078644, 0.138367, 0.010254
6, 50000.000000,-0.001099, 0.013458, -0.015381,-0.015686, -0.023254, -0.259644,0.078644, 0.138367, 0.010254
7, 60000.000000,-0.000305, 0.013458, -0.015381,-0.013916, -0.023743, -0.255219,0.075409, 0.140259, 0.008087
8, 70000.000000,-0.000305, 0.013458, -0.015381,-0.013916, -0.023743, -0.255219,0.075409, 0.140259, 0.008087
9, 80000.000000,-0.000641, 0.011597, -0.015320,-0.013916, -0.023743, -0.255219,0.075409, 0.140259, 0.008087
10, 90000.000000,-0.000641, 0.011597, -0.015320,-0.013916, -0.023743, -0.255219,0.075409, 0.140259, 0.008087
11, 100000.000000,-0.000183, 0.012207, -0.015198,-0.016815, -0.022949, -0.254333,0.069061, 0.136047, 0.013367
12, 110000.000000,-0.000183, 0.012207, -0.015198,-0.016815, -0.022949, -0.254333,0.069061, 0.136047, 0.013367
13, 120000.000000,-0.000183, 0.012207, -0.015198,-0.016815, -0.022949, -0.254333,0.069061, 0.136047, 0.013367
14, 130000.000000,-0.001404, 0.011047, -0.014587,-0.016815, -0.022949, -0.254333,0.069061, 0.136047, 0.013367
15, 140000.000000,-0.001404, 0.011047, -0.014587,-0.016815, -0.022949, -0.254333,0.069061, 0.136047, 0.005554
16, 150000.000000,-0.001160, 0.011078, -0.013763,-0.016876, -0.022705, -0.253937,0.078094, 0.135101, 0.007477
17, 160000.000000,-0.001160, 0.011078, -0.013763,-0.016876, -0.022705, -0.253937,0.078094, 0.135101, 0.007477
18, 170000.000000,-0.000305, 0.011902, -0.015350,-0.016876, -0.022705, -0.253937,0.078094, 0.135101, 0.007477
19, 180000.000000,-0.000305, 0.011902, -0.015350,-0.016876, -0.022705, -0.257324,0.080811, 0.135925, 0.015106
20, 190000.000000,-0.000824, 0.012909, -0.015717,-0.014099, -0.022400, -0.257324,0.080811, 0.135925, 0.015106
21, 200000.000000,-0.000824, 0.012909, -0.015717,-0.014099, -0.022400, -0.257324,0.080811, 0.135925, 0.015106
22, 210000.000000,-0.000824, 0.012909, -0.015717,-0.014099, -0.022400, -0.257324,0.080811, 0.135925, 0.015106
23, 220000.000000,-0.001953, 0.011475, -0.015106,-0.014099, -0.022400, -0.257324,0.080811, 0.135925, 0.015106
24, 230000.000000,-0.001953, 0.011475, -0.015106,-0.014282, -0.024261, -0.254333,0.077637, 0.139954, 0.005341
25, 240000.000000,-0.000122, 0.012207, -0.014862,-0.014282, -0.024261, -0.254333,0.077637, 0.139954, 0.005341
26, 250000.000000,-0.000122, 0.012207, -0.014862,-0.014282, -0.024261, -0.254333,0.077637, 0.139954, 0.005341
27, 260000.000000,-0.000458, 0.011780, -0.014587,-0.014282, -0.024261, -0.254333,0.077637, 0.139954, 0.005341
28, 270000.000000,-0.000458, 0.011780, -0.014587,-0.013855, -0.023102, -0.257233,0.076324, 0.138550, 0.009186
29, 280000.000000,-0.000458, 0.011780, -0.015137,-0.013855, -0.023102, -0.257233,0.076324, 0.138550, 0.009186
30, 290000.000000,-0.001068, 0.012726, -0.015137,-0.013855, -0.023102, -0.257233,0.076324, 0.138550, 0.009186
31, 300000.000000,-0.001068, 0.012726, -0.015137,-0.013855, -0.023102, -0.257233,0.076324, 0.138550, 0.009186
32, 310000.000000,-0.000336, 0.011780, -0.015320,-0.016174, -0.023743, -0.253418,0.072784, 0.135712, 0.010895
33, 320000.000000,-0.000336, 0.011780, -0.015320,-0.016174, -0.023743, -0.253418,0.072784, 0.135712, 0.010895
34, 330000.000000,-0.001007, 0.011108, -0.014343,-0.016174, -0.023743, -0.253418,0.072784, 0.135712, 0.010895
35, 340000.000000,-0.001007, 0.011108, -0.014343,-0.016174, -0.023743, -0.253418,0.072784, 0.135712, 0.010895
36, 350000.000000,-0.000885, 0.011963, -0.014557,-0.015656, -0.023224, -0.251526,0.074799, 0.133728, 0.009674
37, 360000.000000,-0.000885, 0.011963, -0.014557,-0.015656, -0.023224, -0.251526,0.074799, 0.133728, 0.009674
38, 370000.000000,-0.001770, 0.012695, -0.014709,-0.015656, -0.023224, -0.251526,0.074799, 0.133728, 0.009674
39, 380000.000000,-0.001770, 0.012695, -0.014709,-0.015656, -0.023224, -0.251526,0.074799, 0.133728, 0.009674
40, 390000.000000,-0.001099, 0.014404, -0.014893,-0.015289, -0.024933, -0.259949,0.077972, 0.137482, 0.006378
41, 400000.000000,-0.001099, 0.014404, -0.014893,-0.015289, -0.024933, -0.259949,0.077972, 0.137482, 0.006378
42, 410000.000000,-0.001099, 0.014404, -0.014893,-0.015289, -0.024933, -0.259949,0.077972, 0.137482, 0.006378
43, 420000.000000,-0.000793, 0.012604, -0.014893,-0.015289, -0.024933, -0.259949,0.077972, 0.137482, 0.006378
44, 430000.000000,-0.000793, 0.012604, -0.014893,-0.015442, -0.022491, -0.258270,0.079224, 0.136261, 0.008728
45, 440000.000000,-0.001068, 0.013550, -0.014893,-0.015442, -0.022491, -0.258270,0.079224, 0.136261, 0.008728
46, 450000.000000,-0.001068, 0.013550, -0.014893,-0.015442, -0.022491, -0.258270,0.079224, 0.136261, 0.008728
47, 460000.000000,-0.000061, 0.012665, -0.013947,-0.015442, -0.022491, -0.258270,0.079224, 0.136261, 0.008728
48, 470000.000000,-0.000061, 0.012665, -0.013947,-0.015442, -0.022491, -0.254272,0.078796, 0.140076, 0.011353
49, 480000.000000,-0.000061, 0.012665, -0.013947,-0.016357, -0.022736, -0.254272,0.078796, 0.140076, 0.011353
50, 490000.000000,0.000122, 0.011444, -0.015564,-0.016357, -0.022736, -0.254272,0.078796, 0.140076, 0.011353
51, 500000.000000,0.000122, 0.011444, -0.015564,-0.016357, -0.022736, -0.254272,0.078796, 0.140076, 0.011353
52, 510000.000000,-0.000458, 0.011017, -0.015259,-0.016357, -0.022736, -0.254272,0.078796, 0.140076, 0.011353
53, 520000.000000,-0.000458, 0.011017, -0.015259,-0.017059, -0.023468, -0.256531,0.076538, 0.137878, 0.010742
54, 530000.000000,-0.000458, 0.011658, -0.015198,-0.017059, -0.023468, -0.256531,0.076538, 0.137878, 0.010742
55, 540000.000000,-0.000916, 0.011658, -0.015198,-0.017059, -0.023468, -0.256531,0.076538, 0.137878, 0.010742
56, 550000.000000,-0.000916, 0.011658, -0.014679,-0.017059, -0.023468, -0.256531,0.076538, 0.137878, 0.010742
57, 560000.000000,-0.000671, 0.012238, -0.014679,-0.013367, -0.022736, -0.255005,0.076477, 0.139526, 0.006500
58, 570000.000000,-0.000671, 0.012238, -0.014679,-0.013367, -0.022736, -0.255005,0.076477, 0.139526, 0.006500
59, 580000.000000,-0.001038, 0.011627, -0.014740,-0.013367, -0.022736, -0.255005,0.076477, 0.139526, 0.006500
60, 590000.000000,-0.001038, 0.011627, -0.014740,-0.013367, -0.022736, -0.255005,0.076477, 0.139526, 0.006500
61, 600000.000000,-0.000671, 0.012421, -0.013977,-0.013550, -0.022827, -0.255615,0.076935, 0.136353, 0.015930
62, 610000.000000,-0.000671, 0.012421, -0.013977,-0.013550, -0.022827, -0.255615,0.076935, 0.136353, 0.015930
63, 620000.000000,-0.000763, 0.010620, -0.013855,-0.013550, -0.022827, -0.255615,0.076935, 0.136353, 0.015930
64, 630000.000000,-0.000763, 0.010620, -0.013855,-0.013550, -0.022827, -0.255615,0.076935, 0.136353, 0.015930
65, 640000.000000,-0.001984, 0.009888, -0.014893,-0.014893, -0.023407, -0.253326,0.077789, 0.139984, 0.004395
66, 650000.000000,-0.001984, 0.009888, -0.014893,-0.014893, -0.023407, -0.253326,0.077789, 0.139984, 0.004395
67, 660000.000000,-0.001984, 0.009888, -0.014893,-0.014893, -0.023407, -0.253326,0.077789, 0.139984, 0.004395
68, 670000.000000,-0.000580, 0.011230, -0.014557,-0.014893, -0.023407, -0.253326,0.077789, 0.139984, 0.004395
69, 680000.000000,-0.000580, 0.011230, -0.014557,-0.012939, -0.023376, -0.251678,0.077942, 0.136719, 0.005585
70, 690000.000000,-0.001801, 0.010284, -0.014648,-0.012939, -0.023376, -0.251678,0.077942, 0.136719, 0.005585
71, 700000.000000,-0.001801, 0.010284, -0.014648,-0.012939, -0.023376, -0.251678,0.077942, 0.136719, 0.005585
72, 710000.000000,-0.001801, 0.010284, -0.015350,-0.012939, -0.023376, -0.251678,0.077942, 0.136719, 0.005585
73, 720000.000000,-0.001068, 0.010864, -0.015350,-0.012939, -0.023376, -0.251678,0.077942, 0.136719, 0.013397
74, 730000.000000,-0.001068, 0.010864, -0.015350,-0.013885, -0.023560, -0.256714,0.077209, 0.137146, 0.011536
75, 740000.000000,0.000427, 0.011627, -0.014648,-0.013885, -0.023560, -0.256714,0.077209, 0.137146, 0.011536
76, 750000.000000,0.000427, 0.011627, -0.014648,-0.013885, -0.023560, -0.256714,0.077209, 0.137146, 0.011536
77, 760000.000000,-0.007385, 0.012299, -0.014404,-0.013885, -0.023560, -0.256714,0.077209, 0.137146, 0.011536
78, 770000.000000,-0.000671, 0.012299, -0.014404,-0.015320, -0.023529, -0.256042,0.075531, 0.138977, 0.011932
79, 780000.000000,-0.000671, 0.012299, -0.014404,-0.015320, -0.023529, -0.256042,0.075531, 0.138977, 0.011932
80, 790000.000000,-0.001556, 0.011749, -0.015198,-0.015320, -0.023529, -0.256042,0.075531, 0.138977, 0.011932
81, 800000.000000,-0.001556, 0.011749, -0.015198,-0.015320, -0.023529, -0.256042,0.075531, 0.138977, 0.011932
82, 810000.000000,-0.002197, 0.012238, -0.014587,-0.015320, -0.023529, -0.256042,0.075531, 0.138977, 0.011932
83, 820000.000000,-0.002197, 0.012238, -0.014587,-0.013885, -0.022980, -0.255280,0.080444, 0.135895, 0.012665
84, 830000.000000,-0.002197, 0.012238, -0.014587,-0.013885, -0.022980, -0.255280,0.080444, 0.135895, 0.012665
85, 840000.000000,-0.000763, 0.013031, -0.014465,-0.013885, -0.022980, -0.255280,0.080444, 0.135895, 0.012665
86, 850000.000000,-0.000763, 0.013031, -0.014465,-0.013885, -0.022980, -0.255280,0.080444, 0.135895, 0.012665
87, 860000.000000,-0.000397, 0.009552, -0.014404,-0.015778, -0.023773, -0.253662,0.079193, 0.136841, 0.010345
88, 870000.000000,-0.000397, 0.009552, -0.014404,-0.015778, -0.023773, -0.253662,0.079193, 0.136841, 0.010345
89, 880000.000000,-0.001526, 0.009735, -0.014526,-0.015778, -0.023773, -0.253662,0.079193, 0.136841, 0.010345
90, 890000.000000,-0.001526, 0.009735, -0.014526,-0.015778, -0.023773, -0.253662,0.079193, 0.136841, 0.010345
91, 900000.000000,-0.001892, 0.010498, -0.014191,-0.016510, -0.023132, -0.255676,0.078094, 0.139282, 0.005920
92, 910000.000000,-0.001892, 0.010498, -0.014191,-0.016510, -0.023132, -0.255676,0.078094, 0.139282, 0.005920
93, 920000.000000,-0.001892, 0.011597, -0.013428,-0.016510, -0.023132, -0.255676,0.078094, 0.139282, 0.005920
94, 930000.000000,-0.001740, 0.011597, -0.013428,-0.016510, -0.023132, -0.255676,0.078094, 0.139282, 0.005920
95, 940000.000000,-0.001740, 0.011597, -0.013428,-0.014221, -0.023102, -0.257599,0.076660, 0.136261, 0.011841
96, 950000.000000,-0.000244, 0.010925, -0.015015,-0.014221, -0.023102, -0.257599,0.076660, 0.136261, 0.011841
97, 960000.000000,-0.000244, 0.010925, -0.015015,-0.014221, -0.023102, -0.257599,0.076660, 0.136261, 0.011841
98, 970000.000000,-0.000580, 0.011444, -0.015015,-0.014221, -0.023102, -0.257599,0.076660, 0.136261, 0.011841
99, 980000.000000,-0.000580, 0.011444, -0.015015,-0.014221, -0.024170, -0.255157,0.078888, 0.138275, 0.006409
100, 990000.000000,-0.000580, 0.011444, -0.013916,-0.013947, -0.024170, -0.255157,0.078888, 0.138275, 0.006409
101, 1000000.000000,-0.000366, 0.009308, -0.013916,-0.013947, -0.024170, -0.255157,0.078888, 0.138275, 0.006409
102, 1010000.000000,-0.000366, 0.009308, -0.013916,-0.013947, -0.024170, -0.255157,0.078888, 0.138275, 0.006409
103, 1020000.000000,-0.000031, 0.010498, -0.015045,-0.015350, -0.024231, -0.256958,0.079071, 0.134491, 0.010834
104, 1030000.000000,-0.000031, 0.010864, -0.014130,-0.015350, -0.024231, -0.256958,0.079071, 0.134491, 0.010834
105, 1040000.000000,-0.001495, 0.010864, -0.014130,-0.015350, -0.024231, -0.256958,0.079071, 0.134491, 0.010834
106, 1050000.000000,-0.001495, 0.010864, -0.014130,-0.015350, -0.024231, -0.256958,0.079071, 0.134491, 0.010834
107, 1060000.000000,-0.001556, 0.011353, -0.014465,-0.012787, -0.023682, -0.253693,0.078979, 0.135071, 0.014648
108, 1070000.000000,-0.001556, 0.011353, -0.014465,-0.012787, -0.023682, -0.253693,0.078979, 0.135071, 0.014648
109, 1080000.000000,-0.001556, 0.010986, -0.013947,-0.012787, -0.023682, -0.253693,0.078979, 0.135071, 0.014648
110, 1090000.000000,-0.001556, 0.010986, -0.013947,-0.012787, -0.023682, -0.253693,0.078979, 0.135071, 0.014648
111, 1100000.000000,0.000000, 0.011383, -0.015228,-0.012787, -0.023682, -0.257141,0.080261, 0.138916, 0.015900
112, 1110000.000000,0.000000, 0.011383, -0.015228,-0.015381, -0.023499, -0.257141,0.080261, 0.138916, 0.015900
113, 1120000.000000,0.000000, 0.011383, -0.015228,-0.015381, -0.023499, -0.257141,0.080261, 0.138916, 0.015900
114, 1130000.000000,-0.001343, 0.009949, -0.015015,-0.015381, -0.023499, -0.257141,0.080261, 0.138916, 0.015900
115, 1140000.000000,-0.001343, 0.009949, -0.015015,-0.015381, -0.023499, -0.257141,0.080261, 0.139618, 0.008759
116, 1150000.000000,-0.000122, 0.010040, -0.014160,-0.015259, -0.022369, -0.257507,0.074738, 0.139618, 0.008759
117, 1160000.000000,-0.000122, 0.010040, -0.014160,-0.015259, -0.022369, -0.257507,0.074738, 0.139618, 0.008759
118, 1170000.000000,-0.000488, 0.010864, -0.016113,-0.015259, -0.022369, -0.257507,0.074738, 0.139618, 0.008759
119, 1180000.000000,-0.000488, 0.010864, -0.016113,-0.015259, -0.022369, -0.257507,0.074738, 0.139618, 0.008759
120, 1190000.000000,-0.000488, 0.010864, -0.016113,-0.015015, -0.022522, -0.253296,0.080048, 0.136353, 0.008118
121, 1200000.000000,-0.001099, 0.010132, -0.015106,-0.015015, -0.022522, -0.253296,0.080048, 0.136353, 0.008118
122, 1210000.000000,-0.001099, 0.010132, -0.015106,-0.015015, -0.022522, -0.253296,0.080048, 0.136353, 0.008118
123, 1220000.000000,-0.000427, 0.009674, -0.015533,-0.015015, -0.022522, -0.253296,0.080048, 0.136353, 0.008118
124, 1230000.000000,-0.000427, 0.009674, -0.015533,-0.015015, -0.022522, -0.253296,0.080017, 0.135681, 0.008026
125, 1240000.000000,-0.000793, 0.009491, -0.015289,-0.014069, -0.023651, -0.256836,0.080017, 0.135681, 0.008026
126, 1250000.000000,-0.000793, 0.009491, -0.015289,-0.014069, -0.023651, -0.256836,0.080017, 0.135681, 0.008026
127, 1260000.000000,-0.000793, 0.009491, -0.015289,-0.014069, -0.023651, -0.256836,0.080017, 0.135681, 0.008026
128, 1270000.000000,-0.000885, 0.010101, -0.013824,-0.014069, -0.015839, -0.252472,0.079010, 0.139496, 0.004944
129, 1280000.000000,-0.000885, 0.010101, -0.013824,-0.015106, -0.023071, -0.252472,0.079010, 0.139496, 0.004944
130, 1290000.000000,-0.001770, 0.009033, -0.014038,-0.015106, -0.023071, -0.252472,0.079010, 0.139496, 0.004944
131, 1300000.000000,-0.001770, 0.009033, -0.014038,-0.015106, -0.023071, -0.252472,0.079010, 0.139496, 0.004944
132, 1310000.000000,-0.001282, 0.009521, -0.014160,-0.015106, -0.024323, -0.253937,0.078247, 0.138885, 0.005493
133, 1320000.000000,-0.001282, 0.009521, -0.014160,-0.016113, -0.024323, -0.253937,0.078247, 0.138885, 0.005493
134, 1330000.000000,-0.000793, 0.009674, -0.014923,-0.016113, -0.024323, -0.253937,0.078247, 0.138885, 0.005493
135, 1340000.000000,-0.000793, 0.009674, -0.014923,-0.016113, -0.024323, -0.253937,0.078247, 0.138885, 0.005493
136, 1350000.000000,-0.000946, 0.008942, -0.014130,-0.016113, -0.024323, -0.257416,0.077362, 0.138214, 0.004913
137, 1360000.000000,-0.000946, 0.008942, -0.014130,-0.014130, -0.023987, -0.257416,0.077362, 0.138214, 0.004913
138, 1370000.000000,-0.000946, 0.008942, -0.014130,-0.014130, -0.023987, -0.257416,0.077362, 0.138214, 0.004913
139, 1380000.000000,-0.000427, 0.009644, -0.013916,-0.014130, -0.023987, -0.257416,0.077362, 0.138214, 0.004913
140, 1390000.000000,-0.000427, 0.009644, -0.013916,-0.014130, -0.023987, -0.257416,0.077362, 0.138214, 0.004913
141, 1400000.000000,-0.000610, 0.009094, -0.014008,-0.015869, -0.023712, -0.257141,0.076599, 0.137848, 0.010406
142, 1410000.000000,-0.000610, 0.009094, -0.014008,-0.015869, -0.023712, -0.257141,0.076599, 0.137848, 0.010406
143, 1420000.000000,-0.000824, 0.009857, -0.014404,-0.015869, -0.023712, -0.257141,0.076599, 0.137848, 0.010406
144, 1430000.000000,-0.000824, 0.009857, -0.014404,-0.015869, -0.023712, -0.257141,0.076599, 0.137848, 0.010406
145, 1440000.000000,-0.000824, 0.009857, -0.014862,-0.016235, -0.023499, -0.258270,0.077728, 0.135345, 0.009521
146, 1450000.000000,-0.001007, 0.009338, -0.014862,-0.016235, -0.023499, -0.258270,0.077728, 0.135345, 0.009521
147, 1460000.000000,-0.001007, 0.009338, -0.014862,-0.016235, -0.023499, -0.258270,0.077728, 0.135345, 0.009521
148, 1470000.000000,-0.000336, 0.010315, -0.015015,-0.016235, -0.023499, -0.258270,0.077728, 0.135345, 0.009521
149, 1480000.000000,-0.000336, 0.010315, -0.015015,-0.013580, -0.022888, -0.254089,0.072601, 0.134186, 0.012482
150, 1490000.000000,-0.000244, 0.009827, -0.014252,-0.013580, -0.022888, -0.254089,0.072601, 0.134186, 0.012482
151, 1500000.000000,-0.000244, 0.009827, -0.014252,-0.013580, -0.022888, -0.254089,0.072601, 0.134186, 0.012482
152, 1510000.000000,-0.001129, 0.008362, -0.014862,-0.013580, -0.022888, -0.254089,0.072601, 0.134186, 0.012482
153, 1520000.000000,-0.001129, 0.008362, -0.014862,-0.021393, -0.023224, -0.252167,0.080322, 0.138123, 0.010590
154, 1530000.000000,-0.001129, 0.008362, -0.014557,-0.015686, -0.023224, -0.252167,0.080322, 0.138123, 0.010590
155, 1540000.000000,-0.000763, 0.008057, -0.014557,-0.015686, -0.023224, -0.252167,0.080322, 0.138123, 0.010590
156, 1550000.000000,-0.000763, 0.008057, -0.014557,-0.015686, -0.023224, -0.252167,0.080322, 0.138123, 0.010590
157, 1560000.000000,-0.000488, 0.009644, -0.014923,-0.015137, -0.023346, -0.256683,0.077209, 0.136383, 0.013000
158, 1570000.000000,-0.000488, 0.009644, -0.014923,-0.015137, -0.023346, -0.256683,0.077209, 0.136383, 0.013000
159, 1580000.000000,-0.000305, 0.009979, -0.014771,-0.015137, -0.023346, -0.256683,0.077209, 0.136383, 0.013000
160, 1590000.000000,-0.000305, 0.009979, -0.014771,-0.015137, -0.023346, -0.256683,0.077209, 0.136383, 0.013000
161, 1600000.000000,-0.000397, 0.010101, -0.014984,-0.015350, -0.022034, -0.255920,0.072906, 0.133148, 0.010162
162, 1610000.000000,-0.000397, 0.010101, -0.014984,-0.015350, -0.022034, -0.255920,0.072906, 0.133148, 0.010162
163, 1620000.000000,-0.000549, 0.009033, -0.015533,-0.015350, -0.022034, -0.255920,0.072906, 0.133148, 0.010162
164, 1630000.000000,-0.000549, 0.009033, -0.015533,-0.015350, -0.022034, -0.255920,0.072906, 0.133148, 0.010162
165, 1640000.000000,-0.000549, 0.009033, -0.015533,-0.015350, -0.022034, -0.255920,0.073761, 0.134949, 0.010773
166, 1650000.000000,-0.001312, 0.010681, -0.013702,-0.015839, -0.022552, -0.253174,0.073761, 0.134949, 0.010773
167, 1660000.000000,-0.001312, 0.010681, -0.013702,-0.015839, -0.022552, -0.253174,0.073761, 0.134949, 0.010773
168, 1670000.000000,-0.002594, 0.010101, -0.014618,-0.015839, -0.022552, -0.253174,0.073761, 0.134949, 0.010773
169, 1680000.000000,-0.002594, 0.010101, -0.014618,-0.015839, -0.022552, -0.260986,0.083160, 0.137543, 0.006531
170, 1690000.000000,-0.000366, 0.009979, -0.014862,-0.015289, -0.023132, -0.258972,0.083160, 0.137543, 0.006531
171, 1700000.000000,-0.000366, 0.009979, -0.014862,-0.015289, -0.023132, -0.258972,0.083160, 0.137543, 0.006531
172, 1710000.000000,-0.000366, 0.009979, -0.014862,-0.015289, -0.023132, -0.258972,0.083160, 0.137543, 0.006531
173, 1720000.000000,-0.000214, 0.010132, -0.014771,-0.015289, -0.023132, -0.258972,0.083160, 0.137543, 0.006531
174, 1730000.000000,-0.000214, 0.010132, -0.014771,-0.015778, -0.024353, -0.252075,0.079559, 0.136597, 0.004547
175, 1740000.000000,-0.001373, 0.011444, -0.015137,-0.015778, -0.024353, -0.252075,0.079559, 0.136597, 0.004547
176, 1750000.000000,-0.001373, 0.011444, -0.015137,-0.015778, -0.024353, -0.252075,0.079559, 0.136597, 0.004547
177, 1760000.000000,-0.000397, 0.010193, -0.015289,-0.015778, -0.024353, -0.252075,0.079559, 0.136597, 0.004547
178, 1770000.000000,-0.000397, 0.010193, -0.015289,-0.015961, -0.022461, -0.254333,0.069794, 0.138062, 0.011475
179, 1780000.000000,-0.000397, 0.010193, -0.015137,-0.015961, -0.022461, -0.254333,0.069794, 0.138062, 0.011475
180, 1790000.000000,-0.000336, 0.009521, -0.015137,-0.015961, -0.022461, -0.254333,0.069794, 0.138062, 0.011475
181, 1800000.000000,-0.000336, 0.009521, -0.015137,-0.015961, -0.022461, -0.254333,0.069794, 0.138062, 0.011475
182, 1810000.000000,-0.000336, 0.009399, -0.014984,-0.015961, -0.023773, -0.252594,0.074402, 0.137329, 0.009216
183, 1820000.000000,-0.000336, 0.009399, -0.014984,-0.014313, -0.023773, -0.252594,0.074402, 0.137329, 0.009216
184, 1830000.000000,-0.001984, 0.008942, -0.014984,-0.014313, -0.023773, -0.252594,0.074402, 0.137329, 0.009216
185, 1840000.000000,-0.001984, 0.008942, -0.014984,-0.014313, -0.023773, -0.252594,0.074402, 0.137329, 0.009216
186, 1850000.000000,-0.001984, 0.008942, -0.014984,-0.014313, -0.023773, -0.252594,0.074402, 0.137329, 0.009216
187, 1860000.000000,-0.001709, 0.009338, -0.015137,-0.014740, -0.022919, -0.253601,0.079376, 0.138275, 0.012726
188, 1870000.000000,-0.001709, 0.009338, -0.015137,-0.014740, -0.022919, -0.253601,0.079376, 0.138275, 0.012726
189, 1880000.000000,-0.000641, 0.010773, -0.014160,-0.014740, -0.022919, -0.253601,0.079376, 0.138275, 0.012726
190, 1890000.000000,-0.000641, 0.010773, -0.014160,-0.014740, -0.022919, -0.253601,0.079376, 0.138275, 0.012726
191, 1900000.000000,-0.000641, 0.010773, -0.014160,-0.014740, -0.030731, -0.254303,0.079468, 0.138733, 0.010132
192, 1910000.000000,-0.001068, 0.010468, -0.015106,-0.014648, -0.023468, -0.254303,0.079468, 0.138733, 0.010132
193, 1920000.000000,-0.001068, 0.010468, -0.015106,-0.014648, -0.023468, -0.254303,0.079468, 0.138733, 0.010132
194, 1930000.000000,0.000214, 0.009674, -0.016052,-0.014648, -0.023468, -0.254303,0.079468, 0.138733, 0.010132
195, 1940000.000000,0.000214, 0.009674, -0.016052,-0.014648, -0.023468, -0.254303,0.079468, 0.138733, 0.010132
196, 1950000.000000,0.000214, 0.009674, -0.014099,-0.015350, -0.023010, -0.254150,0.080505, 0.137665, 0.013275
197, 1960000.000000,0.000397, 0.009705, -0.014099,-0.015350, -0.023010, -0.254150,0.080505, 0.137665, 0.013275
198, 1970000.000000,0.000397, 0.009705, -0.014099,-0.015350, -0.023010, -0.254150,0.080505, 0.137665, 0.013275
199, 1980000.000000,-0.000427, 0.008270, -0.014343,-0.015350, -0.023010, -0.254150,0.080505, 0.137665, 0.013275
200, 1990000.000000,-0.000427, 0.008270, -0.014343,-0.015472, -0.023438, -0.253662,0.073364, 0.139984, 0.008453
201, 2000000.000000,-0.000977, 0.009033, -0.015472,-0.015472, -0.023438, -0.253662,0.073364, 0.139984, 0.008453
202, 2010000.000000,-0.000977, 0.009033, -0.015472,-0.015472, -0.023438, -0.253662,0.073364, 0.139984, 0.008453
203, 2020000.000000,-0.000977, 0.009033, -0.016418,-0.015472, -0.023438, -0.253662,0.073364, 0.139984, 0.008453
204, 2030000.000000,-0.002777, 0.008636, -0.016418,-0.015472, -0.023438, -0.253662,0.073364, 0.137634, 0.007141
205, 2040000.000000,-0.002777, 0.008636, -0.016418,-0.016205, -0.023193, -0.255798,0.074982, 0.137634, 0.007141
206, 2050000.000000,-0.001740, 0.007965, -0.015289,-0.016205, -0.023193, -0.255798,0.074982, 0.137634, 0.007141
207, 2060000.000000,-0.001740, 0.007965, -0.015289,-0.016205, -0.023193, -0.255798,0.074982, 0.137634, 0.007141
208, 2070000.000000,-0.001740, 0.007690, -0.015167,-0.016205, -0.023193, -0.255798,0.074982, 0.137634, 0.007141
209, 2080000.000000,-0.000946, 0.007690, -0.015167,-0.014984, -0.021973, -0.254181,0.077576, 0.136414, 0.013550
210, 2090000.000000,-0.000946, 0.007690, -0.015167,-0.014984, -0.021973, -0.254181,0.077576, 0.136414, 0.013550
211, 2100000.000000,-0.001923, 0.005646, -0.014648,-0.014984, -0.021973, -0.254181,0.077576, 0.136414, 0.013550
212, 2110000.000000,-0.001923, 0.005646, -0.014648,-0.014984, -0.021973, -0.254181,0.077576, 0.136414, 0.013550
213, 2120000.000000,-0.000336, 0.005890, -0.014374,-0.014984, -0.021973, -0.254181,0.085388, 0.137970, 0.009247
214, 2130000.000000,-0.000336, 0.005890, -0.014374,-0.014435, -0.024536, -0.254272,0.079498, 0.137970, 0.009247
215, 2140000.000000,-0.000336, 0.005890, -0.014374,-0.014435, -0.024536, -0.254272,0.079498, 0.137970, 0.009247
216, 2150000.000000,-0.000702, 0.004486, -0.015228,-0.014435, -0.024536, -0.254272,0.079498, 0.137970, 0.009247
217, 2160000.000000,-0.000702, 0.004486, -0.015228,-0.014435, -0.024536, -0.254272,0.079498, 0.137970, 0.009247
218, 2170000.000000,-0.002380, 0.006653, -0.015411,-0.011505, -0.024994, -0.261444,0.077820, 0.139832, 0.009613
219, 2180000.000000,-0.002380, 0.006653, -0.015411,-0.011505, -0.024994, -0.261444,0.077820, 0.139832, 0.009613
220, 2190000.000000,-0.002380, 0.006653, -0.014160,-0.011505, -0.024994, -0.261444,0.077820, 0.139832, 0.009613
221, 2200000.000000,-0.002716, 0.002533, -0.014160,-0.011505, -0.024994, -0.261444,0.077820, 0.139832, 0.009613
222, 2210000.000000,-0.002716, 0.002533, -0.014160,-0.011505, -0.024994, -0.256836,0.079742, 0.138855, 0.004608
223, 2220000.000000,-0.003143, -0.000336, -0.012512,-0.014160, -0.024231, -0.256836,0.079742, 0.138855, 0.004608
224, 2230000.000000,-0.003143, -0.000336, -0.012512,-0.014160, -0.024231, -0.256836,0.079742, 0.138855, 0.004608
225, 2240000.000000,-0.003143, -0.003174, -0.012756,-0.014160, -0.024231, -0.256836,0.079742, 0.138855, 0.004608
226, 2250000.000000,-0.003021, -0.003174, -0.012756,-0.014160, -0.024231, -0.256836,0.079742, 0.138855, 0.004608
227, 2260000.000000,-0.003021, -0.003174, -0.012756,-0.019470, -0.022186, -0.251587,0.076111, 0.135681, 0.008545
228, 2270000.000000,-0.003021, 0.003937, -0.014648,-0.019470, -0.022186, -0.251587,0.076111, 0.135681, 0.008545
229, 2280000.000000,-0.003021, 0.003937, -0.014648,-0.019470, -0.022186, -0.251587,0.076111, 0.135681, 0.008545
230, 2290000.000000,-0.002991, 0.004669, -0.015625,-0.019470, -0.022186, -0.251587,0.076111, 0.135681, 0.008545
231, 2300000.000000,-0.002991, 0.004669, -0.015625,-0.019470, -0.020874, -0.258209,0.078522, 0.137665, 0.007416
232, 2310000.000000,-0.002991, 0.004669, -0.015625,-0.015533, -0.020874, -0.258209,0.078522, 0.137665, 0.007416
233, 2320000.000000,-0.002808, 0.003601, -0.014984,-0.015533, -0.020874, -0.258209,0.078522, 0.137665, 0.007416
234, 2330000.000000,-0.002808, 0.003601, -0.014984,-0.015533, -0.020874, -0.258209,0.078522, 0.137665, 0.007416
235, 2340000.000000,-0.001862, 0.001801, -0.012787,-0.015533, -0.020874, -0.258209,0.078522, 0.137665, 0.015228
236, 2350000.000000,-0.001862, 0.001801, -0.012787,-0.017731, -0.022003, -0.254761,0.078339, 0.136566, 0.012787
237, 2360000.000000,-0.001862, 0.001801, -0.011719,-0.017731, -0.022003, -0.254761,0.078339, 0.136566, 0.012787
238, 2370000.000000,-0.001373, 0.001404, -0.011719,-0.017731, -0.022003, -0.254761,0.078339, 0.136566, 0.012787
239, 2380000.000000,-0.001373, 0.001404, -0.011719,-0.017731, -0.022003, -0.254761,0.078339, 0.136566, 0.012787
240, 2390000.000000,-0.001953, 0.002045, -0.012756,-0.019806, -0.020782, -0.256134,0.078094, 0.137238, 0.011841
241, 2400000.000000,-0.001953, 0.002045, -0.012756,-0.019806, -0.020782, -0.256134,0.078094, 0.137238, 0.011841
242, 2410000.000000,-0.000977, 0.004974, -0.013916,-0.019806, -0.020782, -0.256134,0.078094, 0.137238, 0.011841
243, 2420000.000000,-0.000977, 0.004974, -0.013916,-0.019806, -0.020782, -0.256134,0.078094, 0.137238, 0.011841
244, 2430000.000000,-0.000977, 0.004974, -0.013916,-0.019806, -0.020782, -0.256134,0.078094, 0.137238, 0.013184
245, 2440000.000000,-0.001831, 0.006805, -0.014221,-0.019562, -0.019928, -0.251770,0.075897, 0.138428, 0.013184
246, 2450000.000000,-0.001831, 0.006805, -0.014221,-0.019562, -0.019928, -0.251770,0.075897, 0.138428, 0.013184
247, 2460000.000000,-0.000275, 0.009430, -0.012512,-0.019562, -0.019928, -0.251770,0.075897, 0.138428, 0.013184
248, 2470000.000000,-0.000275, 0.009430, -0.012512,-0.019562, -0.019928, -0.251770,0.075897, 0.138428, 0.013184
249, 2480000.000000,-0.000275, 0.009430, -0.012512,-0.016083, -0.020447, -0.253540,0.077057, 0.138062, 0.011292
250, 2490000.000000,-0.000488, 0.009583, -0.010956,-0.016083, -0.020447, -0.253540,0.077057, 0.138062, 0.011292
251, 2500000.000000,-0.000488, 0.009583, -0.010956,-0.016083, -0.020447, -0.253540,0.077057, 0.138062, 0.011292
252, 2510000.000000,0.000641, 0.008453, -0.011810,-0.016083, -0.020447, -0.253540,0.077057, 0.138062, 0.011292
253, 2520000.000000,0.000641, 0.008453, -0.011810,-0.016083, -0.020447, -0.253540,0.077057, 0.138062, 0.009399
254, 2530000.000000,0.000641, 0.008453, -0.011810,-0.017609, -0.024017, -0.257568,0.077789, 0.139069, 0.009399
255, 2540000.000000,0.000549, 0.006287, -0.011749,-0.017609, -0.024017, -0.257568,0.077789, 0.139069, 0.009399
256, 2550000.000000,0.000549, 0.006287, -0.011749,-0.017609, -0.024017, -0.257568,0.077789, 0.139069, 0.009399
257, 2560000.000000,-0.001648, 0.005615, -0.012115,-0.017609, -0.024017, -0.257568,0.077789, 0.129272, 0.012878
258, 2570000.000000,-0.001648, 0.005615, -0.012115,-0.017242, -0.026428, -0.258575,0.076904, 0.129272, 0.012878
259, 2580000.000000,-0.001221, 0.004883, -0.012787,-0.017242, -0.026428, -0.258575,0.076904, 0.129272, 0.012878
260, 2590000.000000,-0.001221, 0.004883, -0.012787,-0.017242, -0.026428, -0.258575,0.076904, 0.129272, 0.012878
261, 2600000.000000,-0.002380, 0.005829, -0.014435,-0.017242, -0.026428, -0.258575,0.076904, 0.129272, 0.012878
262, 2610000.000000,-0.002380, 0.005829, -0.014435,-0.015778, -0.023560, -0.262115,0.080109, 0.139099, 0.015839
263, 2620000.000000,-0.002380, 0.005829, -0.014435,-0.015778, -0.023560, -0.262115,0.080109, 0.139099, 0.015839
264, 2630000.000000,-0.003235, 0.003937, -0.013611,-0.015778, -0.023560, -0.262115,0.080109, 0.139099, 0.015839
265, 2640000.000000,-0.003235, 0.003937, -0.013611,-0.015778, -0.023560, -0.262115,0.080109, 0.139099, 0.015839
266, 2650000.000000,-0.003143, 0.002808, -0.012054,-0.015778, -0.023560, -0.255035,0.076843, 0.138977, 0.012512
267, 2660000.000000,-0.003143, 0.002808, -0.012054,-0.018158, -0.022186, -0.255035,0.076843, 0.138977, 0.012512
268, 2670000.000000,-0.003143, 0.002808, -0.012054,-0.018158, -0.022186, -0.255035,0.076843, 0.138977, 0.012512
269, 2680000.000000,-0.003540, 0.001892, -0.011200,-0.018158, -0.022186, -0.255035,0.076843, 0.138977, 0.012512
270, 2690000.000000,-0.003540, 0.001892, -0.011200,-0.018158, -0.022186, -0.255035,0.076843, 0.138885, 0.013580
271, 2700000.000000,-0.002716, 0.000977, -0.011261,-0.015839, -0.021973, -0.256439,0.074585, 0.138885, 0.013580
272, 2710000.000000,-0.002716, 0.000977, -0.011261,-0.015839, -0.021973, -0.256439,0.074585, 0.138885, 0.013580
273, 2720000.000000,-0.001251, -0.000092, -0.010406,-0.015839, -0.021973, -0.256439,0.074585, 0.138885, 0.013580
274, 2730000.000000,-0.001251, -0.000092, -0.010406,-0.015839, -0.021973, -0.256439,0.074585, 0.138885, 0.013580
275, 2740000.000000,-0.000488, -0.002716, -0.009949,-0.017670, -0.024567, -0.260620,0.076080, 0.134857, 0.010925
276, 2750000.000000,-0.000488, -0.002716, -0.009949,-0.017670, -0.024567, -0.260620,0.076080, 0.134857, 0.010925
277, 2760000.000000,-0.003479, -0.003937, -0.011078,-0.017670, -0.024567, -0.260620,0.076080, 0.134857, 0.010925
278, 2770000.000000,-0.003479, -0.003937, -0.011078,-0.017670, -0.024567, -0.260620,0.083893, 0.134460, 0.002441
279, 2780000.000000,-0.006226, -0.000397, -0.014313,-0.021881, -0.023956, -0.255859,0.079315, 0.134460, 0.002441
280, 2790000.000000,-0.006226, -0.000397, -0.014313,-0.021881, -0.023956, -0.255859,0.079315, 0.134460, 0.002441
281, 2800000.000000,-0.014038, 0.009674, -0.020660,-0.021881, -0.023956, -0.255859,0.079315, 0.134460, 0.002441
282, 2810000.000000,-0.008209, 0.009674, -0.020660,-0.037506, -0.022369, -0.245911,0.079468, 0.137970, 0.008575
283, 2820000.000000,-0.008209, 0.009674, -0.032288,-0.036194, -0.022369, -0.245911,0.079468, 0.137970, 0.008575
284, 2830000.000000,-0.008301, 0.030334, -0.032288,-0.036194, -0.022369, -0.245911,0.079468, 0.137970, 0.008575
285, 2840000.000000,-0.008301, 0.030334, -0.032288,-0.036194, -0.022369, -0.245911,0.079468, 0.137970, 0.008575
286, 2850000.000000,-0.009949, 0.065826, -0.057617,-0.036194, -0.007843, -0.246887,0.076477, 0.138184, 0.002899
287, 2860000.000000,-0.009949, 0.065826, -0.057617,-0.026886, -0.007843, -0.246887,0.076477, 0.138184, 0.002899
288, 2870000.000000,-0.010803, 0.109955, -0.106293,-0.026886, -0.007843, -0.246887,0.076477, 0.138184, 0.002899
289, 2880000.000000,-0.010803, 0.109955, -0.106293,-0.026886, -0.007843, -0.246887,0.076477, 0.138184, 0.002899
290, 2890000.000000,-0.018463, 0.193604, -0.182037,-0.026886, -0.007843, -0.186554,0.074768, 0.139099, 0.015259
291, 2900000.000000,-0.018463, 0.193604, -0.182037,-0.078705, 0.064026, -0.186554,0.074768, 0.139099, 0.015259
292, 2910000.000000,0.080688, 0.358398, -0.259521,-0.078705, 0.064026, -0.186554,0.074768, 0.139099, 0.015259
293, 2920000.000000,0.080688, 0.358398, -0.259521,-0.078705, 0.064026, -0.186554,0.074768, 0.139099, 0.015259
294, 2930000.000000,0.080688, 0.358398, -0.259521,-0.078705, 0.064026, -0.186554,0.074768, 0.139099, 0.008209
295, 2940000.000000,0.027710, 0.396881, -0.271149,-0.074951, -0.158264, -0.235291,0.067719, 0.137054, 0.008209
296, 2950000.000000,0.027710, 0.396881, -0.271149,-0.074951, -0.158264, -0.235291,0.067719, 0.137054, 0.008209
297, 2960000.000000,-0.065216, 0.510040, -0.303101,-0.074951, -0.158264, -0.235291,0.067719, 0.137054, 0.008209
298, 2970000.000000,-0.065216, 0.510040, -0.303101,-0.074951, -0.158264, -0.235291,0.067719, 0.137054, 0.008209
299, 2980000.000000,-0.153320, 0.644684, -0.327484,0.029816, -0.194275, -0.364990,0.073914, 0.136200, 0.009369
300, 2990000.000000,-0.153320, 0.644684, -0.327484,0.029816, -0.194275, -0.364990,0.073914, 0.136200, 0.009369
301, 3000000.000000,-0.410706, 0.619019, -0.365631,0.029816, -0.194275, -0.364990,0.073914, 0.136200, 0.009369
302, 3010000.000000,-0.410706, 0.619019, -0.365631,0.029816, -0.194275, -0.363892,0.071136, 0.135590, 0.006714
303, 3020000.000000,-0.591309, 0.708008, -0.357880,-0.252350, -0.224701, -0.363892,0.071136, 0.135590, 0.006714
304, 3030000.000000,-0.591309, 0.708008, -0.357880,-0.252350, -0.224701, -0.363892,0.071136, 0.135590, 0.006714
305, 3040000.000000,-0.435638, 0.641266, -0.276703,-0.252350, -0.224701, -0.363892,0.071136, 0.135590, 0.006714
306, 3050000.000000,-0.435638, 0.641266, -0.276703,-0.252350, -0.201843, -0.606323,0.061096, 0.132782, 0.005981
307, 3060000.000000,-0.435638, 0.641266, -0.182953,-0.197052, -0.201843, -0.606323,0.061096, 0.132782, 0.005981
308, 3070000.000000,-0.142456, 0.378052, -0.182556,-0.197052, -0.201843, -0.606323,0.061096, 0.132782, 0.005981
309, 3080000.000000,-0.142456, 0.378052, -0.182556,-0.197052, -0.201843, -0.606323,0.061096, 0.132782, 0.005981
310, 3090000.000000,0.065033, 0.156525, -0.119293,-0.197052, -0.201843, -0.606323,0.061096, 0.132782, 0.006073
311, 3100000.000000,0.065033, 0.156525, -0.119293,-0.248291, -0.278870, -0.171448,0.054138, 0.131470, 0.006073
312, 3110000.000000,0.133453, 0.096497, -0.052246,-0.248291, -0.278870, -0.171448,0.054138, 0.131470, 0.006073
313, 3120000.000000,0.133453, 0.096497, -0.052246,-0.248291, -0.278870, -0.171448,0.054138, 0.131470, 0.006073
314, 3130000.000000,0.133728, 0.098633, 0.042786,-0.248291, -0.278870, -0.171448,0.054138, 0.131470, 0.006073
315, 3140000.000000,0.133728, 0.098633, 0.042786,-0.217468, -0.181610, -0.220154,0.047546, 0.120514, 0.005524
316, 3150000.000000,0.133728, 0.098633, 0.042786,-0.217468, -0.181610, -0.220154,0.047546, 0.120514, 0.005524
317, 3160000.000000,0.187775, 0.056702, 0.119293,-0.217468, -0.181610, -0.220154,0.047546, 0.120514, 0.005524
318, 3170000.000000,0.187775, 0.056702, 0.119293,-0.217468, -0.181610, -0.220154,0.047546, 0.120514, 0.005524
319, 3180000.000000,0.242401, -0.016388, 0.165466,-0.194305, -0.078888, -0.248260,0.042450, 0.115540, 0.000793
320, 3190000.000000,0.242401, -0.016388, 0.188904,-0.194305, -0.078888, -0.248260,0.042450, 0.115540, 0.000793
321, 3200000.000000,0.271851, -0.076172, 0.192230,-0.194305, -0.078888, -0.248260,0.042450, 0.115540, 0.000793
322, 3210000.000000,0.271851, -0.076172, 0.192230,-0.194305, -0.078888, -0.248260,0.026825, 0.114685, -0.001282
323, 3220000.000000,0.263977, -0.126099, 0.208221,-0.155945, -0.019806, -0.256958,0.028259, 0.114685, -0.001282
324, 3230000.000000,0.263977, -0.126099, 0.208221,-0.155945, -0.019806, -0.256958,0.028259, 0.114685, -0.001282
325, 3240000.000000,0.233582, -0.171478, 0.213501,-0.155945, -0.019806, -0.256958,0.028259, 0.114685, -0.001282
326, 3250000.000000,0.233582, -0.171478, 0.213501,-0.155945, -0.019806, -0.256958,0.028259, 0.114685, -0.001282
327, 3260000.000000,0.233582, -0.171478, 0.213501,-0.135956, 0.016235, -0.255188,0.018158, 0.106873, -0.013062
328, 3270000.000000,0.195587, -0.212341, 0.209442,-0.135956, 0.016235, -0.255188,0.018158, 0.106873, -0.013062
329, 3280000.000000,0.195587, -0.212341, 0.209442,-0.135956, 0.016235, -0.255188,0.018158, 0.106873, -0.013062
330, 3290000.000000,0.163696, -0.249023, 0.201569,-0.135956, 0.016235, -0.255188,0.018158, 0.106873, -0.013062
331, 3300000.000000,0.163696, -0.249023, 0.201569,-0.135956, 0.016235, -0.255188,0.002533, 0.111450, -0.015320
332, 3310000.000000,0.163696, -0.249023, 0.201569,-0.111877, 0.009308, -0.313385,0.004608, 0.111450, -0.015320
333, 3320000.000000,0.138641, -0.292053, 0.195190,-0.111877, 0.009308, -0.313385,0.004608, 0.111450, -0.015320
334, 3330000.000000,0.138641, -0.292053, 0.195190,-0.111877, 0.009308, -0.313385,0.004608, 0.111450, -0.015320
335, 3340000.000000,0.129913, -0.348083, 0.196289,-0.111877, 0.009308, -0.313385,0.004608, 0.111450, -0.015320
336, 3350000.000000,0.129913, -0.348083, 0.196289,-0.088654, -0.007416, -0.305908,-0.004913, 0.107758, -0.027954
337, 3360000.000000,0.129913, -0.348083, 0.196289,-0.088654, -0.007416, -0.305908,-0.004913, 0.107758, -0.027954
338, 3370000.000000,0.124634, -0.401184, 0.202972,-0.088654, -0.007416, -0.305908,-0.004913, 0.107758, -0.027954
339, 3380000.000000,0.124634, -0.401184, 0.202972,-0.088654, -0.007416, -0.305908,-0.004913, 0.107758, -0.027954
340, 3390000.000000,0.113068, -0.437134, 0.212646,-0.088654, -0.007416, -0.305908,-0.004913, 0.110382, -0.044586
341, 3400000.000000,0.113068, -0.437134, 0.212646,-0.070557, -0.003540, -0.249329,-0.006500, 0.110382, -0.044586
342, 3410000.000000,0.113068, -0.452759, 0.219727,-0.070557, -0.003540, -0.249329,-0.006500, 0.110382, -0.044586
343, 3420000.000000,0.092712, -0.447906, 0.219727,-0.070557, -0.003540, -0.249329,-0.006500, 0.110382, -0.044586
344, 3430000.000000,0.092712, -0.447906, 0.219727,-0.070557, -0.003540, -0.249329,-0.006500, 0.110382, -0.044586
345, 3440000.000000,0.069000, -0.428375, 0.220428,-0.057159, 0.014954, -0.167786,-0.013519, 0.115784, -0.064087
346, 3450000.000000,0.069000, -0.428375, 0.220428,-0.057159, 0.014954, -0.167786,-0.013519, 0.115784, -0.064087
347, 3460000.000000,0.051331, -0.380188, 0.214966,-0.057159, 0.014954, -0.167786,-0.013519, 0.115784, -0.064087
348, 3470000.000000,0.051331, -0.380188, 0.214966,-0.057159, 0.014954, -0.167786,-0.013519, 0.115784, -0.064087
349, 3480000.000000,0.048004, -0.317993, 0.205841,-0.040131, 0.027252, -0.198242,-0.030670, 0.115112, -0.073883
350, 3490000.000000,0.048004, -0.317993, 0.205841,-0.040131, 0.027252, -0.198242,-0.030670, 0.115112, -0.073883
351, 3500000.000000,0.048004, -0.317993, 0.198029,-0.040131, 0.027252, -0.198242,-0.030670, 0.115112, -0.073883
352, 3510000.000000,0.042511, -0.273651, 0.198090,-0.040131, 0.027252, -0.198242,-0.030670, 0.115112, -0.073883
353, 3520000.000000,0.042511, -0.273651, 0.198090,-0.007935, 0.022919, -0.343445,-0.029083, 0.131592, -0.102600
354, 3530000.000000,0.023499, -0.262726, 0.190735,-0.007935, 0.022919, -0.343445,-0.029083, 0.131592, -0.102600
355, 3540000.000000,0.023499, -0.262726, 0.190735,-0.007935, 0.022919, -0.343445,-0.029083, 0.131592, -0.102600
356, 3550000.000000,0.001221, -0.272125, 0.181976,-0.007935, 0.022919, -0.343445,-0.029083, 0.131592, -0.102600
357, 3560000.000000,0.001221, -0.272125, 0.181976,0.023315, 0.030182, -0.363953,-0.027557, 0.133118, -0.120117
358, 3570000.000000,0.001221, -0.281555, 0.166992,0.021210, 0.030182, -0.363953,-0.027557, 0.133118, -0.120117
359, 3580000.000000,-0.013672, -0.281555, 0.166992,0.021210, 0.030182, -0.363953,-0.027557, 0.133118, -0.120117
360, 3590000.000000,-0.013672, -0.281555, 0.166992,0.021210, 0.030182, -0.363953,-0.027557, 0.133118, -0.120117
361, 3600000.000000,-0.019409, -0.280884, 0.142914,0.021210, 0.030182, -0.363953,-0.027557, 0.133118, -0.137848
362, 3610000.000000,-0.019409, -0.280884, 0.142914,0.046417, 0.020172, -0.401215,-0.018494, 0.149597, -0.137848
363, 3620000.000000,-0.011658, -0.288788, 0.115570,0.046417, 0.020172, -0.401215,-0.018494, 0.149597, -0.137848
364, 3630000.000000,-0.011658, -0.288788, 0.115570,0.046417, 0.020172, -0.401215,-0.018494, 0.149597, -0.137848
365, 3640000.000000,0.006470, -0.314697, 0.090027,0.046417, -0.003265, -0.399536,-0.004333, 0.156494, -0.148651
366, 3650000.000000,0.006470, -0.314697, 0.090027,0.071716, -0.000244, -0.399536,-0.004333, 0.156494, -0.148651
367, 3660000.000000,0.039948, -0.343506, 0.067322,0.071716, -0.000244, -0.399536,-0.004333, 0.156494, -0.148651
368, 3670000.000000,0.039948, -0.343506, 0.067322,0.071716, -0.000244, -0.399536,-0.004333, 0.156494, -0.148651
369, 3680000.000000,0.079987, -0.360352, 0.048523,0.071716, -0.008759, -0.324738,0.003632, 0.164398, -0.155182
370, 3690000.000000,0.079987, -0.360352, 0.048523,0.090485, -0.008759, -0.324738,0.003632, 0.164398, -0.155182
371, 3700000.000000,0.079987, -0.360352, 0.030762,0.090485, -0.008759, -0.324738,0.003632, 0.164398, -0.155182
372, 3710000.000000,0.114960, -0.356354, 0.030762,0.090485, -0.008759, -0.324738,0.003632, 0.164398, -0.155182
373, 3720000.000000,0.114960, -0.356354, 0.030762,0.090485, -0.008759, -0.260773,0.014954, 0.176056, -0.161926
374, 3730000.000000,0.142548, -0.336853, 0.013153,0.109100, -0.014496, -0.260773,0.014954, 0.176056, -0.161926
375, 3740000.000000,0.142548, -0.336853, 0.013153,0.109100, -0.014496, -0.260773,0.014954, 0.176056, -0.161926
376, 3750000.000000,0.162170, -0.301575, -0.001709,0.109100, -0.014496, -0.260773,0.014954, 0.176056, -0.161926
377, 3760000.000000,0.162170, -0.301575, -0.001709,0.109100, -0.014496, -0.260773,0.026245, 0.176117, -0.161530
378, 3770000.000000,0.186554, -0.268524, -0.010620,0.140808, -0.033722, -0.313202,0.026245, 0.176117, -0.161530
379, 3780000.000000,0.186554, -0.268524, -0.010620,0.140808, -0.033722, -0.313202,0.026245, 0.176117, -0.161530
380, 3790000.000000,0.202179, -0.273254, -0.002289,0.140808, -0.033722, -0.313202,0.026245, 0.176117, -0.161530
381, 3800000.000000,0.202454, -0.273254, -0.002289,0.140808, -0.033722, -0.313202,0.026245, 0.176117, -0.161530
382, 3810000.000000,0.202454, -0.273254, -0.002289,0.230042, -0.103760, -0.358368,0.038574, 0.186707, -0.158417
383, 3820000.000000,0.179779, -0.316589, 0.030701,0.230042, -0.103760, -0.358368,0.038574, 0.186707, -0.158417
384, 3830000.000000,0.179779, -0.316589, 0.030701,0.230042, -0.103760, -0.358368,0.038574, 0.186707, -0.158417
385, 3840000.000000,0.098969, -0.358246, 0.084991,0.230042, -0.103760, -0.358368,0.038574, 0.186707, -0.150848
386, 3850000.000000,0.098969, -0.358246, 0.084991,0.340271, -0.128845, -0.215729,0.057495, 0.187317, -0.150848
387, 3860000.000000,-0.009949, -0.367737, 0.146118,0.340271, -0.128845, -0.215729,0.057495, 0.187317, -0.150848
388, 3870000.000000,-0.009949, -0.367737, 0.146118,0.340271, -0.128845, -0.215729,0.057495, 0.187317, -0.150848
389, 3880000.000000,-0.101166, -0.350037, 0.208954,0.340271, -0.128845, -0.215729,0.057495, 0.187317, -0.150848
390, 3890000.000000,-0.101166, -0.350037, 0.208954,0.280151, -0.057648, 0.009338,0.064209, 0.189423, -0.151306
391, 3900000.000000,-0.101166, -0.350037, 0.208954,0.280151, -0.057648, 0.009338,0.064209, 0.189423, -0.151306
392, 3910000.000000,-0.187927, -0.335327, 0.356995,0.280151, -0.057648, 0.009338,0.064209, 0.189423, -0.151306
393, 3920000.000000,-0.187927, -0.335327, 0.356995,0.280151, -0.057648, 0.009338,0.064209, 0.189423, -0.151306
394, 3930000.000000,-0.122437, 0.205566, 0.186005,0.583496, 0.036072, 0.205078,0.058167, 0.190186, -0.160065
395, 3940000.000000,-0.122437, 0.205566, 0.186005,0.583496, 0.036072, 0.205078,0.058167, 0.190186, -0.160065
396, 3950000.000000,-0.038086, 0.416473, 0.080475,0.583496, 0.036072, 0.205078,0.058167, 0.190186, -0.160065
397, 3960000.000000,-0.038086, 0.416473, 0.080475,0.583496, 0.036072, 0.205078,0.058167, 0.190186, -0.160065
398, 3970000.000000,-0.124023, 0.587738, -0.061340,-0.201782, -0.140747, -0.329895,0.050598, 0.182678, -0.164062
399, 3980000.000000,-0.124207, 0.587738, -0.061340,-0.201782, -0.140747, -0.329895,0.050598, 0.182678, -0.164062
400, 3990000.000000,-0.124207, 0.587738, -0.061340,-0.201782, -0.140747, -0.329895,0.050598, 0.182678, -0.164062
401, 4000000.000000,-0.208344, 0.615814, -0.029114,-0.201782, -0.140747, -0.329895,0.050598, 0.182678, -0.164062
402, 4010000.000000,-0.208344, 0.615814, -0.029114,-0.201782, 0.020538, -0.463501,0.046967, 0.189331, -0.164825
403, 4020000.000000,-0.148956, 0.580444, -0.013336,0.082214, 0.020538, -0.463501,0.046967, 0.189331, -0.164825
404, 4030000.000000,-0.148956, 0.580444, -0.013336,0.082214, 0.020538, -0.463501,0.046967, 0.189331, -0.164825
405, 4040000.000000,-0.151245, 0.448547, -0.032501,0.082214, 0.020538, -0.463501,0.046967, 0.189331, -0.164825
406, 4050000.000000,-0.151245, 0.448547, -0.032501,0.082214, 0.065521, -0.429565,0.046600, 0.183838, -0.169830
407, 4060000.000000,-0.194061, 0.412994, -0.080170,-0.021881, 0.065521, -0.429565,0.046600, 0.183838, -0.169830
408, 4070000.000000,-0.194061, 0.412994, -0.080170,-0.021881, 0.065521, -0.429565,0.046600, 0.183838, -0.169830
409, 4080000.000000,-0.161865, 0.363373, -0.103180,-0.021881, 0.065521, -0.429565,0.046600, 0.183838, -0.169830
410, 4090000.000000,-0.161865, 0.363373, -0.103180,-0.017334, -0.023193, -0.227631,0.040100, 0.186523, -0.181671
411, 4100000.000000,-0.067291, 0.333984, -0.090027,-0.017334, -0.023193, -0.227631,0.040100, 0.186523, -0.181671
412, 4110000.000000,-0.067291, 0.333984, -0.090027,-0.017334, -0.023193, -0.227631,0.040100, 0.186523, -0.181671
413, 4120000.000000,0.044586, 0.372467, -0.062622,-0.017334, -0.023193, -0.227631,0.040100, 0.186523, -0.181671
414, 4130000.000000,0.044586, 0.372467, -0.062622,-0.010834, -0.055634, -0.320129,0.031860, 0.186066, -0.179260
415, 4140000.000000,0.044586, 0.372467, -0.052368,-0.010834, -0.055634, -0.320129,0.031860, 0.186066, -0.179260
416, 4150000.000000,0.126862, 0.404144, -0.052368,-0.010834, -0.055634, -0.320129,0.031860, 0.186066, -0.179260
417, 4160000.000000,0.126862, 0.404144, -0.052368,-0.010834, -0.055634, -0.320129,0.031860, 0.186066, -0.179260
418, 4170000.000000,0.160645, 0.361542, -0.083130,0.075073, -0.020782, -0.525269,0.025940, 0.184357, -0.168488
419, 4180000.000000,0.160645, 0.361542, -0.083130,0.075073, -0.020782, -0.525269,0.025940, 0.184357, -0.168488
420, 4190000.000000,0.110352, 0.237030, -0.084595,0.075073, -0.020782, -0.525269,0.025940, 0.184357, -0.168488
421, 4200000.000000,0.110352, 0.237030, -0.084595,0.075073, -0.020782, -0.525269,0.025940, 0.184357, -0.168488
422, 4210000.000000,-0.047211, 0.107422, -0.017151,0.038208, -0.037537, -0.278534,0.023590, 0.180389, -0.173737
423, 4220000.000000,-0.047211, 0.107422, -0.017151,0.038208, -0.037537, -0.278534,0.023590, 0.180389, -0.173737
424, 4230000.000000,-0.047211, 0.107422, -0.017151,0.038208, -0.037537, -0.278534,0.023590, 0.180389, -0.173737
425, 4240000.000000,-0.054901, 0.030304, -0.013367,0.038208, -0.037537, -0.278534,0.023590, 0.180389, -0.173737
426, 4250000.000000,-0.054901, 0.030304, -0.013367,0.038208, -0.037537, -0.292877,0.025238, 0.182281, -0.176392
427, 4260000.000000,-0.006256, 0.064026, -0.012604,-0.005798, -0.032684, -0.292877,0.025238, 0.182281, -0.176392
428, 4270000.000000,-0.006256, 0.036621, -0.010223,-0.005798, -0.032684, -0.292877,0.025238, 0.182281, -0.176392
429, 4280000.000000,-0.000092, 0.036621, -0.010223,-0.005798, -0.032684, -0.292877,0.025238, 0.182281, -0.176392
430, 4290000.000000,-0.000092, 0.036621, -0.010223,-0.016022, -0.010895, -0.286743,0.024475, 0.188080, -0.175537
431, 4300000.000000,0.010651, 0.023865, -0.009735,-0.016022, -0.010895, -0.286743,0.024475, 0.188080, -0.175537
432, 4310000.000000,0.010651, 0.023865, -0.009735,-0.016022, -0.010895, -0.286743,0.024475, 0.188080, -0.175537
433, 4320000.000000,0.022034, 0.012299, -0.010529,-0.016022, -0.010895, -0.286743,0.024475, 0.188080, -0.175537
434, 4330000.000000,0.022034, 0.012299, -0.010529,-0.016327, -0.033386, -0.277435,0.029388, 0.187225, -0.173279
435, 4340000.000000,0.023621, 0.000305, -0.012909,-0.016327, -0.033386, -0.277435,0.029388, 0.187225, -0.173279
436, 4350000.000000,0.023621, 0.000305, -0.012909,-0.016327, -0.033386, -0.277435,0.029388, 0.187225, -0.173279
437, 4360000.000000,0.025848, -0.006958, -0.016907,-0.016327, -0.033386, -0.277435,0.029388, 0.187225, -0.173279
438, 4370000.000000,0.025848, -0.006958, -0.016907,-0.023285, -0.046814, -0.256165,0.025238, 0.187134, -0.175690
439, 4380000.000000,0.025848, -0.006958, -0.019287,-0.023285, -0.046814, -0.256165,0.025238, 0.187134, -0.175690
440, 4390000.000000,0.018860, -0.005676, -0.019287,-0.023285, -0.046814, -0.256165,0.025238, 0.187134, -0.175690
441, 4400000.000000,0.018860, -0.005676, -0.019287,-0.023285, -0.046814, -0.256165,0.025238, 0.187134, -0.175690
442, 4410000.000000,0.015778, -0.004181, -0.023193,-0.022644, -0.032837, -0.263458,0.027954, 0.185730, -0.179077
443, 4420000.000000,0.015778, -0.004181, -0.023193,-0.022644, -0.032837, -0.263458,0.027954, 0.185730, -0.179077
444, 4430000.000000,0.020264, -0.007416, -0.024841,-0.022644, -0.032837, -0.263458,0.027954, 0.185730, -0.179077
445, 4440000.000000,0.020264, -0.007416, -0.024841,-0.022644, -0.032837, -0.263458,0.027954, 0.185730, -0.179077
446, 4450000.000000,0.028534, -0.010101, -0.024963,-0.025177, -0.031952, -0.259888,0.024200, 0.185638, -0.176849
447, 4460000.000000,0.028534, -0.010101, -0.024963,-0.025177, -0.031952, -0.259888,0.024200, 0.185638, -0.176849
448, 4470000.000000,0.032562, -0.012604, -0.022400,-0.025177, -0.031952, -0.259888,0.024200, 0.185638, -0.176849
449, 4480000.000000,0.032562, -0.012604, -0.022400,-0.025177, -0.039764, -0.252472,0.029266, 0.189758, -0.173126
450, 4490000.000000,0.028168, -0.011902, -0.018036,-0.023468, -0.041901, -0.252472,0.029266, 0.189758, -0.173126
451, 4500000.000000,0.028168, -0.011902, -0.018036,-0.023468, -0.041901, -0.252472,0.029266, 0.189758, -0.173126
452, 4510000.000000,0.018860, -0.013855, -0.014679,-0.023468, -0.041901, -0.252472,0.029266, 0.189758, -0.173126
453, 4520000.000000,0.018860, -0.013855, -0.014679,-0.023468, -0.047699, -0.237488,0.026581, 0.186188, -0.173737
454, 4530000.000000,0.005676, -0.009308, -0.010590,-0.027100, -0.047699, -0.237488,0.026581, 0.186188, -0.173737
455, 4540000.000000,0.005676, -0.009308, -0.010590,-0.027100, -0.047699, -0.237488,0.026581, 0.186188, -0.173737
456, 4550000.000000,0.005676, -0.009308, -0.010590,-0.027100, -0.047699, -0.237488,0.026581, 0.186188, -0.173737
457, 4560000.000000,-0.007629, -0.004303, -0.006195,-0.027100, -0.047699, -0.237488,0.020386, 0.186859, -0.175201
458, 4570000.000000,-0.007629, -0.004303, -0.006195,-0.033478, -0.045868, -0.230347,0.020386, 0.186859, -0.175201
459, 4580000.000000,-0.023621, 0.001221, -0.002014,-0.033478, -0.045868, -0.230347,0.020386, 0.186859, -0.175201
460, 4590000.000000,-0.023621, 0.001221, -0.002014,-0.033478, -0.045868, -0.230347,0.020386, 0.186859, -0.175201
461, 4600000.000000,-0.035370, 0.008881, -0.000305,-0.033478, -0.045868, -0.230347,0.020386, 0.186859, -0.175201
462, 4610000.000000,-0.035370, 0.008881, -0.000305,-0.032288, -0.036011, -0.238800,0.026001, 0.188477, -0.174957
463, 4620000.000000,-0.035370, 0.016693, 0.001251,-0.032288, -0.036011, -0.238800,0.026001, 0.188477, -0.174957
464, 4630000.000000,-0.039886, 0.015656, 0.001251,-0.032288, -0.036011, -0.238800,0.026001, 0.188477, -0.174957
465, 4640000.000000,-0.039886, 0.015656, 0.001251,-0.032288, -0.036011, -0.238800,0.026001, 0.188477, -0.174957
466, 4650000.000000,-0.050446, 0.026062, 0.003174,-0.032532, -0.044800, -0.236450,0.028748, 0.187103, -0.182098
467, 4660000.000000,-0.050446, 0.026062, 0.003174,-0.032532, -0.044800, -0.236450,0.028748, 0.187103, -0.182098
468, 4670000.000000,-0.062775, 0.037292, 0.002350,-0.032532, -0.044800, -0.236450,0.028748, 0.187103, -0.182098
469, 4680000.000000,-0.062775, 0.045105, 0.004822,-0.032532, -0.036011, -0.245239,0.029266, 0.188446, -0.171631
470, 4690000.000000,-0.068085, 0.044281, 0.004822,-0.026398, -0.036011, -0.245239,0.029266, 0.188446, -0.171631
471, 4700000.000000,-0.068085, 0.044281, 0.004822,-0.026398, -0.036011, -0.245239,0.029266, 0.188446, -0.171631
472, 4710000.000000,-0.071106, 0.045227, 0.006104,-0.026398, -0.036011, -0.245239,0.029266, 0.188446, -0.171631
473, 4720000.000000,-0.071106, 0.045227, 0.006104,-0.026398, -0.031494, -0.256592,0.024170, 0.186035, -0.177887
474, 4730000.000000,-0.072876, 0.038818, 0.006378,-0.019623, -0.031494, -0.256592,0.024170, 0.186035, -0.177887
475, 4740000.000000,-0.072876, 0.038818, 0.006378,-0.019623, -0.031494, -0.256592,0.024170, 0.186035, -0.177887
476, 4750000.000000,-0.067383, 0.027191, 0.007812,-0.019623, -0.031494, -0.256592,0.024170, 0.186035, -0.177887
477, 4760000.000000,-0.067383, 0.027191, 0.007812,-0.019623, -0.031494, -0.256592,0.024170, 0.188965, -0.183380
478, 4770000.000000,-0.049408, 0.012695, 0.004883,-0.025055, -0.027771, -0.251434,0.025055, 0.188965, -0.183380
479, 4780000.000000,-0.049408, 0.012695, 0.004883,-0.025055, -0.027771, -0.251434,0.025055, 0.188965, -0.183380
480, 4790000.000000,-0.049408, 0.012695, 0.004883,-0.025055, -0.027771, -0.251434,0.025055, 0.188965, -0.183380
481, 4800000.000000,-0.045593, 0.013611, 0.002441,-0.025055, -0.027771, -0.251434,0.025055, 0.188965, -0.179169
482, 4810000.000000,-0.045593, 0.013611, 0.002441,-0.025604, -0.022949, -0.257477,0.026428, 0.184967, -0.179169
483, 4820000.000000,-0.036774, 0.016693, -0.006622,-0.025604, -0.022949, -0.257477,0.026428, 0.184967, -0.179169
484, 4830000.000000,-0.036774, 0.016693, -0.006622,-0.025604, -0.022949, -0.257477,0.026428, 0.184967, -0.179169
485, 4840000.000000,-0.024628, 0.020874, -0.009094,-0.025604, -0.022949, -0.257477,0.026428, 0.184967, -0.179169
486, 4850000.000000,-0.024628, 0.020874, -0.009094,-0.025726, -0.033936, -0.257996,0.028229, 0.182709, -0.174103
487, 4860000.000000,-0.025177, 0.026367, -0.011963,-0.025726, -0.033936, -0.257996,0.028229, 0.182709, -0.174103
488, 4870000.000000,-0.025177, 0.026367, -0.011963,-0.025726, -0.033936, -0.257996,0.028229, 0.182709, -0.174103
489, 4880000.000000,-0.020874, 0.032043, -0.010529,-0.025726, -0.026123, -0.261810,0.025543, 0.185760, -0.173920
490, 4890000.000000,-0.020874, 0.032043, -0.010529,-0.024170, -0.030304, -0.261810,0.025543, 0.185760, -0.173920
491, 4900000.000000,-0.013336, 0.032043, -0.012421,-0.024170, -0.030304, -0.261810,0.025543, 0.185760, -0.173920
492, 4910000.000000,-0.013336, 0.032043, -0.012421,-0.024170, -0.030304, -0.261810,0.025543, 0.185760, -0.173920
493, 4920000.000000,-0.013336, 0.032043, -0.010040,-0.024170, -0.030304, -0.258484,0.029541, 0.183380, -0.179962
494, 4930000.000000,-0.012573, 0.029999, -0.010040,-0.022339, -0.027832, -0.258484,0.029541, 0.183380, -0.179962
495, 4940000.000000,-0.012573, 0.029999, -0.010040,-0.022339, -0.027832, -0.258484,0.029541, 0.183380, -0.179962
496, 4950000.000000,-0.006683, 0.026184, -0.008728,-0.022339, -0.027832, -0.258484,0.029541, 0.183380, -0.179962
497, 4960000.000000,-0.006683, 0.026184, -0.008728,-0.022339, -0.027832, -0.252411,0.022339, 0.183807, -0.181396
498, 4970000.000000,-0.009644, 0.031189, -0.009674,-0.024048, -0.025146, -0.252411,0.022339, 0.183807, -0.181396
499, 4980000.000000,-0.009644, 0.031189, -0.009674,-0.024048, -0.025146, -0.252411,0.022339, 0.183807, -0.181396
500, 4990000.000000,-0.005768, 0.034485, -0.009308,-0.024048, -0.025146, -0.252411,0.022339, 0.183807, -0.181396
501, 5000000.000000,-0.005768, 0.034485, -0.009308,-0.024048, -0.025146, -0.260223,0.026276, 0.181549, -0.179626
502, 5010000.000000,-0.016205, 0.032379, -0.009308,-0.021393, -0.036346, -0.261169,0.026276, 0.181549, -0.179626
503, 5020000.000000,-0.016205, 0.032379, -0.009308,-0.021393, -0.036346, -0.261169,0.026276, 0.181549, -0.179626
504, 5030000.000000,-0.016205, 0.032379, -0.009308,-0.021393, -0.036346, -0.261169,0.026276, 0.181549, -0.179626
505, 5040000.000000,-0.025116, 0.032806, -0.011261,-0.021393, -0.036346, -0.261169,0.026276, 0.181549, -0.179626
506, 5050000.000000,-0.025116, 0.032806, -0.011261,-0.022461, -0.024170, -0.253815,0.025970, 0.183319, -0.179260
507, 5060000.000000,-0.002960, 0.027466, -0.011658,-0.022461, -0.024170, -0.253815,0.025970, 0.183319, -0.179260
508, 5070000.000000,-0.002960, 0.027466, -0.011658,-0.022461, -0.024170, -0.253815,0.025970, 0.183319, -0.179260
509, 5080000.000000,0.001312, 0.022308, -0.009827,-0.022461, -0.024170, -0.253815,0.025970, 0.183319, -0.178253
510, 5090000.000000,0.001312, 0.022308, -0.009827,-0.020050, -0.030609, -0.253113,0.026459, 0.184174, -0.178253
511, 5100000.000000,-0.000427, 0.024994, -0.008423,-0.020050, -0.030609, -0.253113,0.026459, 0.184174, -0.178253
512, 5110000.000000,-0.000427, 0.024994, -0.008423,-0.020050, -0.030609, -0.253113,0.026459, 0.184174, -0.178253
513, 5120000.000000,-0.004791, 0.020386, -0.007294,-0.020050, -0.030609, -0.253113,0.028625, 0.181702, -0.182892
514, 5130000.000000,-0.004791, 0.020386, -0.007294,-0.024597, -0.026672, -0.256683,0.028625, 0.181702, -0.182892
515, 5140000.000000,-0.004791, 0.027557, -0.012604,-0.024597, -0.026672, -0.256683,0.028625, 0.181702, -0.182892
516, 5150000.000000,-0.012238, 0.027557, -0.012604,-0.024597, -0.026672, -0.256683,0.028625, 0.181702, -0.182892
517, 5160000.000000,-0.012238, 0.027557, -0.012604,-0.024597, -0.026672, -0.256683,0.028625, 0.181702, -0.185028
518, 5170000.000000,-0.038757, 0.038422, -0.025909,-0.046570, -0.017242, -0.229187,0.024445, 0.186005, -0.185028
519, 5180000.000000,-0.038757, 0.038422, -0.025909,-0.046570, -0.017242, -0.229187,0.024445, 0.186005, -0.185028
520, 5190000.000000,-0.001129, 0.068298, -0.023773,-0.046570, -0.017242, -0.229187,0.024445, 0.186005, -0.185028
521, 5200000.000000,-0.001129, 0.068298, -0.023773,-0.046570, -0.017242, -0.229187,0.024445, 0.186005, -0.185028
522, 5210000.000000,0.014496, 0.099335, -0.009338,-0.044128, -0.036224, -0.236755,0.023682, 0.181763, -0.180725
523, 5220000.000000,0.014648, 0.099335, -0.009338,-0.044128, -0.036224, -0.236755,0.023682, 0.181763, -0.180725
524, 5230000.000000,0.014648, 0.099335, -0.009338,-0.044128, -0.036224, -0.236755,0.023682, 0.181763, -0.180725
525, 5240000.000000,-0.007904, 0.137390, -0.006622,-0.044128, -0.036224, -0.236755,0.023682, 0.181763, -0.180725
526, 5250000.000000,-0.007904, 0.137390, -0.006622,-0.009735, -0.022522, -0.261169,0.017517, 0.184357, -0.178467
527, 5260000.000000,0.022125, 0.146088, -0.000214,-0.009735, -0.022522, -0.261169,0.017517, 0.184357, -0.178467
528, 5270000.000000,0.022125, 0.146088, -0.000214,-0.009735, -0.022522, -0.261169,0.017517, 0.184357, -0.178467
529, 5280000.000000,0.023254, 0.140533, 0.005737,-0.009735, -0.022522, -0.261169,0.017517, 0.184357, -0.178467
530, 5290000.000000,0.023254, 0.140533, 0.005737,-0.009735, -0.022522, -0.261169,0.023010, 0.183411, -0.186920
531, 5300000.000000,0.020081, 0.157715, -0.003204,-0.017273, -0.036194, -0.260864,0.023010, 0.183411, -0.186920
532, 5310000.000000,0.020081, 0.157715, -0.003204,-0.017273, -0.036194, -0.260864,0.023010, 0.183411, -0.186920
533, 5320000.000000,0.020081, 0.159515, -0.008331,-0.017273, -0.036194, -0.260864,0.023010, 0.183411, -0.186920
534, 5330000.000000,0.017029, 0.159515, -0.008331,0.028900, -0.039551, -0.292542,0.017578, 0.185394, -0.169098
535, 5340000.000000,0.017029, 0.159515, -0.008331,0.028900, -0.039551, -0.292542,0.017578, 0.185394, -0.169098
536, 5350000.000000,0.033722, 0.129730, -0.011658,0.028900, -0.039551, -0.292542,0.017578, 0.185394, -0.169098
537, 5360000.000000,0.033722, 0.129730, -0.011658,0.028900, -0.039551, -0.292542,0.017578, 0.185394, -0.169098
538, 5370000.000000,-0.007965, 0.084717, -0.020325,0.028900, -0.023926, -0.262329,0.016388, 0.187347, -0.187775
539, 5380000.000000,-0.007965, 0.084717, -0.020325,-0.019836, -0.028290, -0.262329,0.016388, 0.187347, -0.187775
540, 5390000.000000,-0.005432, 0.118134, -0.021393,-0.019836, -0.028290, -0.262329,0.016388, 0.187347, -0.187775
541, 5400000.000000,-0.005432, 0.118134, -0.021393,-0.019836, -0.028290, -0.262329,0.016388, 0.187347, -0.187775
542, 5410000.000000,-0.005432, 0.118134, -0.021393,-0.019836, -0.028290, -0.262329,0.016388, 0.183990, -0.188751
543, 5420000.000000,0.031433, 0.140991, -0.016998,-0.016174, -0.040466, -0.264252,0.013885, 0.183990, -0.188751
544, 5430000.000000,0.031433, 0.140991, -0.016998,-0.016174, -0.040466, -0.264252,0.013885, 0.183990, -0.188751
545, 5440000.000000,0.008453, 0.171082, -0.022156,-0.016174, -0.040466, -0.264252,0.013885, 0.183990, -0.188751
546, 5450000.000000,0.008453, 0.171082, -0.022156,-0.016174, -0.040466, -0.264252,0.013885, 0.183990, -0.188751
547, 5460000.000000,-0.023285, 0.207916, -0.019073,-0.039124, -0.025146, -0.251404,0.010529, 0.184113, -0.180786
548, 5470000.000000,-0.023285, 0.207916, -0.019073,-0.039124, -0.025146, -0.251404,0.010529, 0.184113, -0.180786
549, 5480000.000000,-0.023285, 0.207916, -0.019073,-0.039124, -0.025146, -0.251404,0.010529, 0.184113, -0.180786
550, 5490000.000000,-0.026306, 0.317566, -0.064758,-0.039124, -0.025146, -0.251404,0.010529, 0.184113, -0.180786
551, 5500000.000000,-0.026306, 0.317566, -0.064758,-0.039124, -0.044891, -0.284637,0.011993, 0.181274, -0.177734
552, 5510000.000000,-0.014130, 0.398285, -0.108978,-0.041504, -0.044891, -0.284637,0.011993, 0.181274, -0.177734
553, 5520000.000000,-0.014130, 0.398285, -0.108978,-0.041504, -0.044891, -0.284637,0.011993, 0.181274, -0.177734
554, 5530000.000000,0.024933, 0.365692, -0.242371,-0.041504, -0.044891, -0.284637,0.011993, 0.181274, -0.177734
555, 5540000.000000,0.027313, 0.365692, -0.242371,-0.041504, -0.044891, -0.284637,0.011993, 0.181274, -0.171051
556, 5550000.000000,0.027313, 0.365692, -0.242371,-0.420288, -0.030457, -0.479675,-0.003174, 0.185242, -0.171051
557, 5560000.000000,0.283691, 0.712311, -0.397430,-0.420288, -0.030457, -0.479675,-0.003174, 0.185242, -0.171051
558, 5570000.000000,0.613647, 0.987823, -0.357635,-0.420288, -0.030457, -0.479675,-0.003174, 0.185242, -0.171051
559, 5580000.000000,0.613647, 0.987823, -0.357635,-0.196960, -0.129242, -0.495148,-0.035095, 0.186859, -0.150482
560, 5590000.000000,0.533142, 0.989258, -0.658630,-0.196960, -0.129242, -0.495148,-0.035095, 0.186859, -0.150482
561, 5600000.000000,0.533142, 0.989258, -0.658630,-0.196960, -0.129242, -0.495148,-0.035095, 0.186859, -0.150482
562, 5610000.000000,0.501556, 0.989258, -0.687531,-0.196960, -0.129242, -0.495148,-0.035095, 0.186859, -0.111420
563, 5620000.000000,0.501556, 0.989258, -0.687531,-0.268311, -0.016846, -0.461151,-0.062317, 0.176361, -0.116058
564, 5630000.000000,0.501556, 0.989258, -0.687531,-0.268311, -0.016846, -0.461151,-0.062317, 0.176361, -0.116058
565, 5640000.000000,0.351196, 0.989258, -0.832947,-0.268311, -0.016846, -0.461151,-0.062317, 0.176361, -0.116058
566, 5650000.000000,0.351196, 0.989258, -0.832947,-0.268311, -0.016846, -0.461151,-0.062317, 0.176361, -0.116058
567, 5660000.000000,0.101166, 0.989258, -0.951569,-0.553314, -0.228668, -0.019226,-0.090820, 0.164093, -0.065918
568, 5670000.000000,0.101166, 0.989258, -0.951569,-0.553314, -0.228668, -0.019226,-0.090820, 0.164093, -0.065918
569, 5680000.000000,0.101166, 0.989258, -0.719910,-0.553314, -0.228668, -0.019226,-0.090820, 0.164093, -0.065918
570, 5690000.000000,0.045868, 0.989258, -0.719910,-0.553314, -0.228668, -0.019226,-0.090820, 0.164093, -0.065918
571, 5700000.000000,0.045868, 0.989258, -0.719910,-0.553314, -0.228668, -0.019226,-0.100311, 0.141510, -0.022552
572, 5710000.000000,0.286438, 0.989197, -0.749176,0.903473, -0.303925, -0.970154,-0.100311, 0.141510, -0.022552
573, 5720000.000000,0.286438, 0.989197, -0.749176,0.903473, -0.303925, -0.970154,-0.100311, 0.141510, -0.022552
574, 5730000.000000,-0.089417, 0.986053, -0.807617,0.903473, -0.303925, -0.970154,-0.100311, 0.141510, -0.022552
575, 5740000.000000,-0.089417, 0.986053, -0.807617,-0.362152, -0.476685, -0.990234,-0.098236, 0.141144, -0.017548
576, 5750000.000000,-0.100769, 0.681549, -0.733398,-0.366699, -0.476685, -0.990234,-0.098236, 0.141144, -0.017548
577, 5760000.000000,-0.100769, 0.681549, -0.733398,-0.366699, -0.476685, -0.990234,-0.098236, 0.141144, -0.017548
578, 5770000.000000,-0.114410, -0.133636, -0.396851,-0.366699, -0.476685, -0.990234,-0.098236, 0.141144, -0.017548
579, 5780000.000000,-0.114410, -0.133636, -0.396851,-0.366699, -0.338379, -0.725769,-0.089752, 0.138733, -0.032898
580, 5790000.000000,-0.074982, -0.564819, -0.197205,-0.175201, -0.338379, -0.725769,-0.089752, 0.138733, -0.032898
581, 5800000.000000,-0.074982, -0.564819, -0.197205,-0.175201, -0.338379, -0.725769,-0.089752, 0.138733, -0.032898
582, 5810000.000000,-0.074982, -0.564819, -0.033142,-0.175201, -0.338379, -0.725769,-0.089752, 0.138733, -0.032898
583, 5820000.000000,-0.071838, -0.845581, -0.034241,-0.175201, -0.236816, -0.277466,-0.090820, 0.137848, -0.050629
584, 5830000.000000,-0.071838, -0.845581, -0.034241,-0.116180, -0.235138, -0.277466,-0.090820, 0.137848, -0.050629
585, 5840000.000000,-0.102936, -0.968781, 0.081573,-0.116180, -0.235138, -0.277466,-0.090820, 0.137848, -0.050629
586, 5850000.000000,-0.102936, -0.968781, 0.081573,-0.116180, -0.235138, -0.277466,-0.090820, 0.137848, -0.050629
587, 5860000.000000,-0.094421, -0.999207, 0.169067,-0.116180, -0.235138, -0.277466,-0.083008, 0.140137, -0.072083
588, 5870000.000000,-0.094421, -0.999207, 0.169067,-0.057129, -0.143951, -0.141510,-0.083008, 0.140137, -0.072083
589, 5880000.000000,-0.063782, -0.999969, 0.230133,-0.057129, -0.143951, -0.141510,-0.083008, 0.140137, -0.072083
590, 5890000.000000,-0.063782, -0.999969, 0.230133,-0.057129, -0.143951, -0.141510,-0.083008, 0.140137, -0.072083
591, 5900000.000000,-0.063782, -0.999969, 0.230133,-0.057129, -0.143951, -0.141510,-0.073639, 0.145355, -0.100891
592, 5910000.000000,-0.039368, -1.000000, 0.267487,0.011078, -0.059937, -0.169830,-0.073639, 0.145355, -0.100891
593, 5920000.000000,-0.039368, -1.000000, 0.268585,0.011078, -0.059937, -0.169830,-0.073639, 0.145355, -0.100891
594, 5930000.000000,-0.022064, -1.000000, 0.268585,0.011078, -0.059937, -0.169830,-0.073639, 0.145355, -0.100891
595, 5940000.000000,-0.022064, -1.000000, 0.268585,0.011078, -0.059937, -0.223999,-0.067383, 0.154877, -0.121429
596, 5950000.000000,0.013275, -1.000000, 0.242950,0.046997, 0.003265, -0.223999,-0.067383, 0.154877, -0.121429
597, 5960000.000000,0.013275, -1.000000, 0.242950,0.046997, 0.003265, -0.223999,-0.067383, 0.154877, -0.121429
598, 5970000.000000,0.054352, -1.000000, 0.208496,0.046997, 0.003265, -0.223999,-0.067383, 0.154877, -0.121429
599, 5980000.000000,0.054352, -1.000000, 0.208496,0.046997, 0.003265, -0.223999,-0.067383, 0.160645, -0.141510
600, 5990000.000000,0.079895, -1.000000, 0.177216,0.095123, -0.000336, -0.280670,-0.040649, 0.160645, -0.141510
601, 6000000.000000,0.079895, -1.000000, 0.177216,0.095123, -0.000336, -0.280670,-0.040649, 0.160645, -0.141510
602, 6010000.000000,0.079895, -1.000000, 0.177216,0.095123, -0.000336, -0.280670,-0.040649, 0.160645, -0.141510
603, 6020000.000000,0.085144, -1.000000, 0.154724,0.095123, -0.000336, -0.280670,-0.040649, 0.160645, -0.149323
604, 6030000.000000,0.085144, -1.000000, 0.154724,0.127075, -0.030670, -0.280853,-0.012390, 0.164612, -0.153137
605, 6040000.000000,0.075562, -1.000000, 0.146667,0.127075, -0.030670, -0.280853,-0.012390, 0.164612, -0.153137
606, 6050000.000000,0.075562, -1.000000, 0.146667,0.127075, -0.030670, -0.280853,-0.012390, 0.164612, -0.153137
607, 6060000.000000,0.064850, -1.000000, 0.146637,0.127075, -0.030670, -0.280853,-0.012390, 0.164612, -0.153137
608, 6070000.000000,0.064850, -1.000000, 0.146637,0.149719, -0.021210, -0.256561,0.016846, 0.171906, -0.159912
609, 6080000.000000,0.063873, -1.000000, 0.143372,0.149719, -0.021210, -0.256561,0.016846, 0.171906, -0.159912
610, 6090000.000000,0.063873, -1.000000, 0.143372,0.149719, -0.021210, -0.256561,0.016846, 0.171906, -0.159912
611, 6100000.000000,0.063873, -1.000000, 0.141174,0.149719, -0.021210, -0.256561,0.016846, 0.171906, -0.159912
612, 6110000.000000,0.081329, -1.000000, 0.141174,0.178436, -0.028442, -0.307922,0.050812, 0.182343, -0.151276
613, 6120000.000000,0.081329, -1.000000, 0.141174,0.178436, -0.028442, -0.307922,0.050812, 0.182343, -0.151276
614, 6130000.000000,0.106873, -1.000000, 0.145813,0.178436, -0.028442, -0.307922,0.050812, 0.182343, -0.151276
615, 6140000.000000,0.106873, -1.000000, 0.160126,0.178436, -0.028442, -0.307922,0.066437, 0.190948, -0.134338
616, 6150000.000000,0.125458, -1.000000, 0.160126,0.214569, -0.033356, -0.356415,0.069427, 0.190948, -0.134338
617, 6160000.000000,0.125458, -1.000000, 0.160126,0.214569, -0.033356, -0.356415,0.069427, 0.190948, -0.134338
618, 6170000.000000,0.137421, -1.000000, 0.177765,0.214569, -0.033356, -0.356415,0.069427, 0.190948, -0.134338
619, 6180000.000000,0.137421, -1.000000, 0.177765,0.214569, -0.033356, -0.356415,0.089264, 0.192993, -0.118683
620, 6190000.000000,0.143188, -1.000000, 0.199036,0.234161, -0.039490, -0.356659,0.089264, 0.192993, -0.118683
621, 6200000.000000,0.143188, -1.000000, 0.199036,0.234161, -0.039490, -0.356659,0.089264, 0.192993, -0.118683
622, 6210000.000000,0.136261, -0.999725, 0.224304,0.234161, -0.039490, -0.356659,0.089264, 0.192993, -0.118683
623, 6220000.000000,0.136261, -0.999725, 0.224304,0.234161, -0.039490, -0.356659,0.097076, 0.193878, -0.103729
624, 6230000.000000,0.117889, -0.975922, 0.254822,0.264984, -0.090240, -0.410187,0.094513, 0.193878, -0.103729
625, 6240000.000000,0.117889, -0.975922, 0.254822,0.264984, -0.090240, -0.410187,0.094513, 0.193878, -0.103729
626, 6250000.000000,0.094849, -0.909973, 0.292511,0.264984, -0.090240, -0.410187,0.094513, 0.193878, -0.103729
627, 6260000.000000,0.094849, -0.909973, 0.292511,0.264984, -0.090240, -0.410187,0.094513, 0.191681, -0.087433
628, 6270000.000000,0.094849, -0.909973, 0.334991,0.335297, -0.131042, -0.519836,0.105438, 0.191681, -0.087433
629, 6280000.000000,0.079712, -0.855713, 0.334991,0.335297, -0.131042, -0.519836,0.105438, 0.191681, -0.087433
630, 6290000.000000,0.079712, -0.855713, 0.334991,0.335297, -0.131042, -0.519836,0.105438, 0.191681, -0.087433
631, 6300000.000000,0.090271, -0.826874, 0.363892,0.335297, -0.131042, -0.519836,0.105438, 0.191681, -0.080566
632, 6310000.000000,0.090271, -0.826874, 0.363892,0.501434, -0.127777, -0.634186,0.115601, 0.191101, -0.080566
633, 6320000.000000,0.095428, -0.830811, 0.374634,0.501434, -0.127777, -0.634186,0.115601, 0.191101, -0.080566
634, 6330000.000000,0.142303, -0.872986, 0.380280,0.501434, -0.127777, -0.634186,0.115601, 0.191101, -0.080566
635, 6340000.000000,0.143250, -0.872986, 0.380280,0.635712, 0.014648, -0.498566,0.118317, 0.189484, -0.072510
636, 6350000.000000,0.143250, -0.872986, 0.380280,0.635712, 0.014648, -0.498566,0.118317, 0.189484, -0.072510
637, 6360000.000000,0.265869, -0.905457, 0.363068,0.635712, 0.014648, -0.498566,0.118317, 0.189484, -0.072510
638, 6370000.000000,0.265869, -0.905457, 0.363068,0.635712, 0.014648, -0.498566,0.118317, 0.189484, -0.072510
639, 6380000.000000,0.315979, -0.858765, 0.316803,0.700897, -0.009644, -0.204712,0.122314, 0.185089, -0.060547
640, 6390000.000000,0.315979, -0.858765, 0.316803,0.700897, -0.009644, -0.204712,0.122314, 0.185089, -0.060547
641, 6400000.000000,0.237762, -0.751984, 0.294220,0.700897, -0.009644, -0.204712,0.122314, 0.185089, -0.060547
642, 6410000.000000,0.237762, -0.751984, 0.294220,0.700897, -0.009644, -0.204712,0.122314, 0.185089, -0.060547
643, 6420000.000000,0.097137, -0.636139, 0.370056,0.805115, 0.012451, 0.125092,0.126831, 0.185394, -0.063171
644, 6430000.000000,0.097565, -0.636139, 0.370056,0.805115, 0.012451, 0.125092,0.126831, 0.185394, -0.063171
645, 6440000.000000,0.097565, -0.636139, 0.370056,0.805115, 0.012451, 0.125092,0.126831, 0.185394, -0.063171
646, 6450000.000000,-0.019440, -0.375153, 0.256561,0.805115, 0.012451, 0.125092,0.126831, 0.185394, -0.063171
647, 6460000.000000,-0.019440, -0.375153, 0.256561,0.883240, 0.088531, 0.585327,0.124115, 0.182007, -0.060547
648, 6470000.000000,-0.058990, 0.219574, 0.116486,0.887695, 0.088531, 0.585327,0.124115, 0.182007, -0.060547
649, 6480000.000000,-0.058990, 0.219574, 0.116486,0.887695, 0.088531, 0.585327,0.124115, 0.182007, -0.060547
650, 6490000.000000,-0.158752, 0.609558, 0.041718,0.887695, 0.088531, 0.585327,0.124115, 0.182007, -0.060547
651, 6500000.000000,-0.158752, 0.609558, 0.041718,0.887695, 0.088531, 0.085327,0.122406, 0.183960, -0.067810
652, 6510000.000000,-0.332123, 0.815369, -0.043793,-0.003906, -0.022430, 0.079102,0.122406, 0.183960, -0.067810
653, 6520000.000000,-0.332123, 0.815369, -0.043793,-0.003906, -0.022430, 0.079102,0.122406, 0.183960, -0.067810
654, 6530000.000000,-0.264557, 0.941132, -0.003326,-0.003906, -0.022430, 0.079102,0.122406, 0.183960, -0.067810
655, 6540000.000000,-0.264557, 0.941132, -0.003326,0.279175, -0.140320, -0.773438,0.116089, 0.187347, -0.065155
656, 6550000.000000,0.050690, 0.901276, 0.131073,0.279175, -0.140320, -0.773438,0.116089, 0.187347, -0.065155
657, 6560000.000000,0.050690, 0.901276, 0.131073,0.279175, -0.140320, -0.773438,0.116089, 0.187347, -0.065155
658, 6570000.000000,0.050690, 0.635651, 0.198273,0.279175, -0.140320, -0.773438,0.116089, 0.187347, -0.065155
659, 6580000.000000,0.008026, 0.640076, 0.198273,-0.016022, 0.094421, -0.255554,0.110107, 0.187347, -0.063812
660, 6590000.000000,0.008026, 0.640076, 0.198273,-0.016022, 0.094421, -0.255554,0.110107, 0.187347, -0.063812
661, 6600000.000000,0.023956, 0.663879, 0.179260,-0.016022, 0.094421, -0.255554,0.110107, 0.187347, -0.063812
662, 6610000.000000,0.023956, 0.663879, 0.179260,-0.016022, 0.094421, -0.255554,0.110107, 0.187347, -0.063812
663, 6620000.000000,-0.042786, 0.712616, 0.075684,0.070648, 0.376282, -0.675293,0.098999, 0.189331, -0.064972
664, 6630000.000000,-0.042786, 0.712616, 0.075684,0.070648, 0.376282, -0.675293,0.098999, 0.189331, -0.064972
665, 6640000.000000,-0.174469, 0.725800, 0.009033,0.070648, 0.376282, -0.675293,0.098999, 0.189331, -0.064972
666, 6650000.000000,-0.174469, 0.725800, 0.009033,0.070648, 0.376282, -0.675293,0.098999, 0.189331, -0.064972
667, 6660000.000000,-0.174469, 0.315002, 0.065857,-0.022064, -0.213074, -0.102325,0.099304, 0.181213, -0.071991
668, 6670000.000000,-0.308014, 0.315002, 0.065857,-0.022064, -0.213074, -0.102325,0.099304, 0.181213, -0.071991
669, 6680000.000000,-0.308014, 0.315002, 0.065857,-0.022064, -0.213074, -0.102325,0.099304, 0.181213, -0.071991
670, 6690000.000000,-0.399414, 0.172577, 0.065430,-0.022064, -0.213074, -0.102325,0.099304, 0.181213, -0.071991
671, 6700000.000000,-0.399414, 0.172577, 0.065430,-0.022064, 0.035889, -0.198273,0.097778, 0.180359, -0.072388
672, 6710000.000000,-0.186554, 0.142487, 0.026093,-0.021240, 0.035889, -0.198273,0.097778, 0.180359, -0.072388
673, 6720000.000000,-0.186554, 0.142487, 0.026093,-0.021240, 0.035889, -0.198273,0.097778, 0.180359, -0.072388
674, 6730000.000000,-0.154755, 0.135986, 0.039490,-0.021240, 0.035889, -0.198273,0.097778, 0.180359, -0.072388
675, 6740000.000000,-0.154755, 0.135986, 0.039490,-0.018372, 0.032440, -0.287933,0.107574, 0.184845, -0.081055
676, 6750000.000000,-0.160706, 0.093964, 0.031860,-0.018372, 0.032440, -0.287933,0.107574, 0.184845, -0.081055
677, 6760000.000000,-0.160706, 0.093964, 0.031860,-0.018372, 0.032440, -0.287933,0.107574, 0.184845, -0.081055
678, 6770000.000000,-0.103302, 0.096161, 0.013550,-0.018372, 0.032440, -0.287933,0.107574, 0.184845, -0.081055
679, 6780000.000000,-0.103302, 0.096161, 0.013550,-0.027191, -0.023712, -0.267029,0.102692, 0.182159, -0.077393
680, 6790000.000000,-0.079865, 0.086121, -0.004791,-0.027191, -0.023712, -0.267029,0.102692, 0.182159, -0.077393
681, 6800000.000000,-0.078613, 0.086121, -0.004791,-0.027191, -0.023712, -0.267029,0.102692, 0.182159, -0.077393
682, 6810000.000000,-0.078613, 0.086121, -0.004791,-0.027191, -0.023712, -0.267029,0.102692, 0.182159, -0.077393
683, 6820000.000000,-0.065704, 0.092865, -0.018402,-0.012238, -0.001953, -0.257721,0.092834, 0.180969, -0.087524
684, 6830000.000000,-0.065704, 0.092865, -0.018402,-0.012238, -0.001953, -0.257721,0.092834, 0.180969, -0.087524
685, 6840000.000000,-0.043854, 0.086700, -0.022095,-0.012238, -0.001953, -0.257721,0.092834, 0.180969, -0.087524
686, 6850000.000000,-0.043854, 0.086700, -0.022095,-0.012238, -0.001953, -0.257721,0.092834, 0.180969, -0.087524
687, 6860000.000000,-0.026855, 0.069489, -0.017853,-0.009186, 0.001862, -0.266235,0.099457, 0.177032, -0.080963
688, 6870000.000000,-0.026855, 0.069489, -0.017853,-0.009186, 0.001862, -0.266235,0.099457, 0.177032, -0.080963
689, 6880000.000000,-0.009766, 0.057770, -0.010376,-0.009186, 0.001862, -0.266235,0.099457, 0.177032, -0.080963
690, 6890000.000000,-0.009766, 0.057770, -0.010376,-0.009186, 0.001862, -0.266235,0.099457, 0.177032, -0.080963
691, 6900000.000000,0.008423, 0.057861, -0.008118,-0.011841, -0.005402, -0.257599,0.097260, 0.180328, -0.081757
692, 6910000.000000,0.008423, 0.057861, -0.008118,-0.011841, -0.005402, -0.257599,0.097260, 0.180328, -0.081757
693, 6920000.000000,0.016235, 0.055573, -0.012421,-0.011841, -0.005402, -0.257599,0.097260, 0.180328, -0.081757
694, 6930000.000000,0.019409, 0.055573, -0.012421,-0.011841, -0.005402, -0.257599,0.097260, 0.180328, -0.081757
695, 6940000.000000,0.019104, 0.054840, -0.021790,-0.011444, -0.023010, -0.259491,0.107269, 0.185455, -0.086578
696, 6950000.000000,0.019104, 0.054840, -0.021790,-0.011444, -0.023010, -0.259491,0.107269, 0.185455, -0.086578
697, 6960000.000000,0.015930, 0.049622, -0.027161,-0.011444, -0.023010, -0.259491,0.107269, 0.185455, -0.086578
698, 6970000.000000,0.015930, 0.049622, -0.027161,-0.011444, -0.023010, -0.255707,0.101379, 0.184265, -0.089447
699, 6980000.000000,0.018646, 0.040436, -0.029480,-0.007782, -0.009521, -0.255707,0.101379, 0.184265, -0.089447
700, 6990000.000000,0.018646, 0.040436, -0.029480,-0.007782, -0.009521, -0.255707,0.101379, 0.184265, -0.089447
701, 7000000.000000,0.018646, 0.040436, -0.029480,-0.007782, -0.009521, -0.255707,0.101379, 0.184265, -0.089447
702, 7010000.000000,0.020935, 0.032074, -0.028625,-0.007782, -0.013000, -0.263702,0.094727, 0.184357, -0.090454
703, 7020000.000000,0.020935, 0.032074, -0.028625,-0.008820, -0.013000, -0.263702,0.094727, 0.184357, -0.090454
704, 7030000.000000,0.021973, 0.022858, -0.027283,-0.008820, -0.013000, -0.263702,0.094727, 0.184357, -0.090454
705, 7040000.000000,0.021973, 0.022858, -0.027283,-0.008820, -0.013000, -0.263702,0.094727, 0.184357, -0.090454
706, 7050000.000000,0.023865, 0.019897, -0.027679,-0.008820, -0.013000, -0.263702,0.095276, 0.184692, -0.075378
707, 7060000.000000,0.023865, 0.019897, -0.027679,-0.015869, -0.015656, -0.254425,0.095276, 0.184692, -0.075378
708, 7070000.000000,0.023163, 0.024017, -0.030334,-0.015869, -0.015656, -0.254425,0.095276, 0.184692, -0.075378
709, 7080000.000000,0.023163, 0.024017, -0.030334,-0.015869, -0.015656, -0.254425,0.095276, 0.184692, -0.075378
710, 7090000.000000,0.024200, 0.029572, -0.036224,-0.015869, -0.015656, -0.254425,0.095276, 0.183594, -0.079254
711, 7100000.000000,0.024200, 0.029572, -0.036224,-0.014221, -0.013885, -0.254272,0.096405, 0.183594, -0.079254
712, 7110000.000000,0.024200, 0.029572, -0.041962,-0.014221, -0.013885, -0.254272,0.096405, 0.183594, -0.079254
713, 7120000.000000,0.022827, 0.031647, -0.041962,-0.014221, -0.013885, -0.254272,0.096405, 0.183594, -0.079254
714, 7130000.000000,0.022827, 0.031647, -0.043427,-0.014221, -0.013885, -0.254272,0.103119, 0.184387, -0.077637
715, 7140000.000000,0.019592, 0.033630, -0.043427,-0.012329, -0.014343, -0.254242,0.103119, 0.184387, -0.077637
716, 7150000.000000,0.017212, 0.034668, -0.045441,-0.012329, -0.014343, -0.254242,0.103119, 0.184387, -0.077637
717, 7160000.000000,0.017212, 0.034668, -0.045441,-0.012329, -0.014343, -0.254242,0.103119, 0.184387, -0.077637
718, 7170000.000000,0.016907, 0.040070, -0.049957,-0.007660, -0.013763, -0.252930,0.097290, 0.187408, -0.075531
719, 7180000.000000,0.016907, 0.040070, -0.049957,-0.007660, -0.013763, -0.252930,0.097290, 0.187408, -0.075531
720, 7190000.000000,0.016907, 0.040070, -0.049957,-0.007660, -0.013763, -0.252930,0.097290, 0.187408, -0.075531
721, 7200000.000000,0.012787, 0.043060, -0.054443,-0.007660, -0.013763, -0.252930,0.097290, 0.187408, -0.075531
722, 7210000.000000,0.012787, 0.043060, -0.054443,-0.013855, -0.024139, -0.257721,0.092377, 0.185699, -0.088257
723, 7220000.000000,0.022614, 0.058807, -0.048981,-0.013855, -0.024139, -0.257721,0.092377, 0.185699, -0.088257
724, 7230000.000000,0.022614, 0.058807, -0.048981,-0.013855, -0.024139, -0.257721,0.092377, 0.185699, -0.088257
725, 7240000.000000,0.030914, 0.063873, -0.045441,-0.013855, -0.024139, -0.257721,0.092377, 0.185699, -0.088257
726, 7250000.000000,0.030914, 0.063873, -0.045441,-0.011475, -0.020874, -0.254730,0.093262, 0.183899, -0.082520
727, 7260000.000000,0.056580, 0.078064, -0.078430,-0.011475, -0.020874, -0.254730,0.093262, 0.183899, -0.082520
728, 7270000.000000,0.056580, 0.078064, -0.078430,-0.011475, -0.020874, -0.254730,0.093262, 0.183899, -0.082520
729, 7280000.000000,0.056580, 0.078064, -0.078430,-0.011475, -0.020874, -0.254730,0.093262, 0.183899, -0.082520
730, 7290000.000000,0.058044, 0.074921, -0.041199,0.004150, -0.018127, -0.260773,0.087982, 0.184448, -0.081787
731, 7300000.000000,0.058044, 0.074921, -0.041199,0.000946, -0.018127, -0.260773,0.087982, 0.184448, -0.081787
732, 7310000.000000,0.054565, 0.059509, -0.008423,0.000946, -0.018127, -0.260773,0.087982, 0.184448, -0.081787
733, 7320000.000000,0.054565, 0.059509, -0.008423,0.000946, -0.018127, -0.260773,0.087982, 0.184448, -0.081787
734, 7330000.000000,0.059814, 0.053070, -0.009918,0.000946, -0.018127, -0.248535,0.097382, 0.187286, -0.083557
735, 7340000.000000,0.059814, 0.053070, -0.009918,-0.004456, -0.018250, -0.248535,0.097382, 0.187286, -0.083557
736, 7350000.000000,0.064789, 0.055603, -0.011749,-0.004456, -0.018250, -0.248535,0.097382, 0.187286, -0.083557
737, 7360000.000000,0.064789, 0.055603, -0.011749,-0.004456, -0.018250, -0.248535,0.097382, 0.187286, -0.083557
738, 7370000.000000,0.064789, 0.055603, -0.011749,-0.004456, -0.018250, -0.248535,0.097382, 0.188873, -0.074310
739, 7380000.000000,0.054749, 0.051880, 0.002258,-0.003754, -0.020233, -0.253632,0.095581, 0.188873, -0.074310
740, 7390000.000000,0.054749, 0.051880, 0.002258,-0.003754, -0.020233, -0.253632,0.095581, 0.188873, -0.074310
741, 7400000.000000,0.066650, 0.041290, 0.017853,-0.003754, -0.020233, -0.253632,0.095581, 0.188873, -0.074310
742, 7410000.000000,0.066650, 0.041290, 0.017853,-0.003754, -0.020233, -0.253632,0.095581, 0.188873, -0.074310
743, 7420000.000000,0.066650, 0.025665, 0.019135,0.000183, -0.023956, -0.257751,0.089600, 0.182831, -0.079559
744, 7430000.000000,0.049164, 0.026215, 0.019135,0.000183, -0.023956, -0.257751,0.089600, 0.182831, -0.079559
745, 7440000.000000,0.043365, 0.023041, 0.022034,0.000183, -0.023956, -0.257751,0.089600, 0.182831, -0.079559
746, 7450000.000000,0.043365, 0.023041, 0.022034,0.000183, -0.023956, -0.257751,0.089600, 0.182831, -0.071747
747, 7460000.000000,0.058990, 0.005249, 0.028748,-0.002014, -0.025543, -0.256531,0.093719, 0.183716, -0.076599
748, 7470000.000000,0.061005, 0.005249, 0.028748,-0.002014, -0.025543, -0.256531,0.093719, 0.183716, -0.076599
749, 7480000.000000,0.061005, 0.005249, 0.028748,-0.002014, -0.025543, -0.256531,0.093719, 0.183716, -0.076599
750, 7490000.000000,0.059479, 0.009979, 0.036469,-0.002014, -0.025543, -0.256531,0.093719, 0.183716, -0.076599
751, 7500000.000000,0.059479, 0.009979, 0.036469,-0.006683, -0.035980, -0.263184,0.097412, 0.187622, -0.084717
752, 7510000.000000,0.043182, 0.035278, 0.029053,-0.006683, -0.035980, -0.263184,0.097412, 0.187622, -0.084717
753, 7520000.000000,0.043182, 0.035278, 0.029053,-0.006683, -0.035980, -0.263184,0.097412, 0.187622, -0.084717
754, 7530000.000000,0.030640, 0.041321, 0.022522,-0.006683, -0.035980, -0.263184,0.097412, 0.187622, -0.084717
755, 7540000.000000,0.030640, 0.041321, 0.022522,-0.005249, -0.032684, -0.258270,0.099731, 0.188080, -0.078796
756, 7550000.000000,0.030640, 0.047089, 0.016022,-0.005249, -0.032684, -0.258270,0.099731, 0.188080, -0.078796
757, 7560000.000000,0.030945, 0.047089, 0.016022,-0.005249, -0.032684, -0.258270,0.099731, 0.188080, -0.078796
758, 7570000.000000,0.011658, 0.070160, 0.000580,-0.005249, -0.032684, -0.258270,0.099731, 0.188080, -0.084869
759, 7580000.000000,0.011658, 0.070160, 0.000580,-0.001251, -0.034760, -0.254730,0.100006, 0.189453, -0.084869
760, 7590000.000000,-0.014069, 0.088196, -0.019043,-0.001251, -0.034760, -0.254730,0.100006, 0.189453, -0.084869
761, 7600000.000000,-0.014069, 0.088196, -0.019043,-0.001251, -0.034760, -0.254730,0.100006, 0.189453, -0.084869
762, 7610000.000000,-0.014069, 0.088196, -0.019043,-0.001251, -0.034760, -0.254730,0.100006, 0.189453, -0.068207
763, 7620000.000000,-0.017609, 0.109406, -0.026306,-0.007507, -0.027771, -0.263275,0.093750, 0.190399, -0.068207
764, 7630000.000000,-0.017609, 0.109406, -0.026306,-0.007507, -0.027771, -0.263275,0.093750, 0.190399, -0.068207
765, 7640000.000000,-0.030212, 0.132996, -0.026306,-0.007507, -0.027771, -0.263275,0.093750, 0.190399, -0.068207
766, 7650000.000000,-0.030212, 0.132996, -0.026306,-0.007507, -0.027771, -0.263275,0.085938, 0.185547, -0.086517
767, 7660000.000000,-0.051086, 0.163055, -0.020721,-0.011475, -0.028503, -0.256653,0.092773, 0.185547, -0.086517
768, 7670000.000000,-0.051086, 0.163055, -0.020721,-0.011475, -0.028503, -0.256653,0.092773, 0.185547, -0.086517
769, 7680000.000000,-0.048401, 0.163605, -0.023773,-0.011475, -0.028503, -0.256653,0.092773, 0.185547, -0.086517
770, 7690000.000000,-0.048401, 0.163605, -0.023773,-0.011475, -0.028503, -0.256653,0.092773, 0.185547, -0.080078
771, 7700000.000000,-0.048401, 0.142578, -0.012573,0.006348, -0.004456, -0.241516,0.090393, 0.186096, -0.080078
772, 7710000.000000,0.024719, 0.142578, -0.012573,0.006348, -0.004456, -0.241516,0.090393, 0.186096, -0.080078
773, 7720000.000000,0.024719, 0.142578, -0.012573,0.006348, -0.004456, -0.241516,0.090393, 0.186096, -0.080078
774, 7730000.000000,0.048401, 0.187653, -0.196442,0.006348, -0.004456, -0.241516,0.090393, 0.186096, -0.080078
775, 7740000.000000,0.048401, 0.187653, -0.196442,-0.306152, -0.213654, -0.389862,0.089905, 0.183899, -0.078552
776, 7750000.000000,0.087585, 0.589386, -0.268829,-0.306152, -0.213654, -0.389862,0.089905, 0.183899, -0.078552
777, 7760000.000000,0.087585, 0.589386, -0.214142,-0.306152, -0.213654, -0.389862,0.089905, 0.183899, -0.078552
778, 7770000.000000,0.400848, 0.958527, -0.218231,-0.315277, 0.042786, -0.668121,0.075378, 0.192444, -0.082977
779, 7780000.000000,0.400848, 0.958527, -0.218231,-0.315277, 0.042786, -0.668121,0.075378, 0.192444, -0.082977
780, 7790000.000000,0.637787, 0.989258, -0.511169,-0.315277, 0.042786, -0.668121,0.075378, 0.192444, -0.082977
781, 7800000.000000,0.637787, 0.989258, -0.511169,-0.315277, 0.042786, -0.668121,0.075378, 0.192444, -0.082977
782, 7810000.000000,0.547546, 0.989258, -0.543030,-0.315277, 0.042786, -0.489777,0.054810, 0.193390, -0.071350
783, 7820000.000000,0.547546, 0.989258, -0.543030,-0.122498, -0.007965, -0.489777,0.054810, 0.193390, -0.071350
784, 7830000.000000,0.492859, 0.989258, -0.531647,-0.122498, -0.007965, -0.489777,0.054810, 0.193390, -0.071350
785, 7840000.000000,0.492554, 0.989258, -0.531647,-0.122498, -0.007965, -0.489777,0.054810, 0.193390, -0.071350
786, 7850000.000000,0.492554, 0.989258, -0.531647,-0.122498, -0.007965, -0.489777,0.054810, 0.193390, -0.071350
787, 7860000.000000,0.275665, 0.989258, -0.687927,-0.260406, -0.012695, -0.309540,0.018127, 0.184937, -0.052887
788, 7870000.000000,0.275665, 0.989258, -0.687927,-0.260406, -0.012695, -0.309540,0.018127, 0.184937, -0.052887
789, 7880000.000000,0.035309, 0.989258, -0.820892,-0.260406, -0.012695, -0.309540,0.018127, 0.184937, -0.052887
790, 7890000.000000,0.035309, 0.989258, -0.820892,-0.260406, -0.012695, -0.309540,0.018127, 0.184937, -0.041168
791, 7900000.000000,0.147949, 0.989258, -0.624573,-0.035248, 0.191467, -0.215759,-0.000427, 0.183807, -0.041168
792, 7910000.000000,0.147949, 0.989258, -0.624573,-0.035248, 0.191467, -0.215759,-0.000427, 0.183807, -0.041168
793, 7920000.000000,0.543213, 0.989258, -0.930573,-0.035248, 0.191467, -0.215759,-0.000427, 0.183807, -0.041168
794, 7930000.000000,0.543213, 0.989258, -0.930573,-0.035248, 0.191467, -0.215759,-0.000427, 0.183807, -0.041168
795, 7940000.000000,0.543213, 0.989258, -0.743073,-0.257904, -0.039703, -0.946960,-0.008850, 0.177094, -0.026764
796, 7950000.000000,0.034790, 0.949005, -0.749054,-0.257904, -0.039703, -0.946960,-0.008850, 0.177094, -0.026764
797, 7960000.000000,0.034790, 0.949005, -0.749054,-0.257904, -0.039703, -0.946960,-0.008850, 0.177094, -0.026764
798, 7970000.000000,0.118500, 0.290497, -0.609222,-0.257904, -0.039703, -0.946960,-0.008850, 0.177094, -0.026764
799, 7980000.000000,0.118500, 0.290497, -0.609222,-0.186859, -0.263214, -0.876160,-0.019501, 0.171173, -0.038696
800, 7990000.000000,0.079620, -0.456726, -0.601807,-0.186859, -0.263214, -0.876160,-0.019501, 0.171173, -0.038696
801, 8000000.000000,0.079620, -0.456726, -0.601807,-0.186859, -0.263214, -0.876160,-0.019501, 0.171173, -0.038696
802, 8010000.000000,-0.021729, -0.741760, -0.442108,-0.186859, -0.263214, -0.876160,-0.019501, 0.171173, -0.038696
803, 8020000.000000,-0.021729, -0.741760, -0.442108,-0.107849, -0.230408, -0.288422,-0.028137, 0.171814, -0.046692
804, 8030000.000000,-0.021729, -0.921448, -0.258911,-0.107849, -0.230408, -0.288422,-0.028137, 0.171814, -0.046692
805, 8040000.000000,-0.293365, -0.918884, -0.258911,-0.107849, -0.230408, -0.288422,-0.028137, 0.171814, -0.046692
806, 8050000.000000,-0.293365, -0.918884, -0.258911,-0.107849, -0.230408, -0.288422,-0.028137, 0.171814, -0.046692
807, 8060000.000000,-0.385071, -0.938477, -0.117065,-0.099945, -0.265808, -0.112274,-0.031128, 0.171570, -0.055786
808, 8070000.000000,-0.385071, -0.938477, -0.117065,-0.099945, -0.265808, -0.112274,-0.031128, 0.171570, -0.055786
809, 8080000.000000,-0.158844, -0.891052, -0.027161,-0.099945, -0.265808, -0.112274,-0.031128, 0.171570, -0.055786
810, 8090000.000000,-0.158844, -0.891052, -0.027161,-0.099945, -0.265808, -0.112274,-0.031128, 0.171570, -0.055786
811, 8100000.000000,-0.096588, -0.902527, 0.053131,-0.023895, -0.154419, -0.180420,-0.012939, 0.179199, -0.078278
812, 8110000.000000,-0.096588, -0.902527, 0.053131,-0.023895, -0.154419, -0.180420,-0.012939, 0.179199, -0.078278
813, 8120000.000000,-0.096588, -0.955109, 0.119019,-0.023895, -0.154419, -0.180420,-0.012939, 0.179199, -0.078278
814, 8130000.000000,-0.058990, -0.955109, 0.119019,-0.023895, -0.154419, -0.180420,-0.012939, 0.179199, -0.078278
815, 8140000.000000,-0.058990, -0.955109, 0.119019,0.030792, -0.051941, -0.247650,-0.005249, 0.184662, -0.078949
816, 8150000.000000,-0.011292, -0.995392, 0.149139,0.025726, -0.051941, -0.247650,-0.005249, 0.184662, -0.078949
817, 8160000.000000,-0.011292, -0.995392, 0.149139,0.025726, -0.051941, -0.247650,-0.005249, 0.184662, -0.078949
818, 8170000.000000,0.048981, -1.000000, 0.149384,0.025726, -0.051941, -0.247650,-0.005249, 0.184662, -0.078949
819, 8180000.000000,0.048981, -1.000000, 0.149384,0.060699, 0.001007, -0.252106,0.006256, 0.190277, -0.085052
820, 8190000.000000,0.091492, -1.000000, 0.130890,0.060699, 0.001007, -0.252106,0.006256, 0.190277, -0.085052
821, 8200000.000000,0.091492, -1.000000, 0.130890,0.060699, 0.001007, -0.252106,0.006256, 0.190277, -0.085052
822, 8210000.000000,0.121918, -1.000000, 0.102692,0.060699, 0.001007, -0.252106,0.006256, 0.190277, -0.085052
823, 8220000.000000,0.121918, -1.000000, 0.102692,0.092804, 0.043152, -0.235565,0.012543, 0.192444, -0.089294
824, 8230000.000000,0.159912, -1.000000, 0.071411,0.092804, 0.043152, -0.235565,0.012543, 0.192444, -0.089294
825, 8240000.000000,0.159912, -1.000000, 0.071411,0.092804, 0.043152, -0.235565,0.012543, 0.192444, -0.089294
826, 8250000.000000,0.198364, -1.000000, 0.037994,0.092804, 0.043152, -0.235565,0.012543, 0.192444, -0.089294
827, 8260000.000000,0.198364, -1.000000, 0.037994,0.124176, 0.052612, -0.229340,0.014587, 0.192017, -0.089447
828, 8270000.000000,0.198364, -1.000000, 0.010590,0.124176, 0.052612, -0.229340,0.014587, 0.192017, -0.089447
829, 8280000.000000,0.219055, -1.000000, 0.010590,0.124176, 0.052612, -0.229340,0.014587, 0.192017, -0.089447
830, 8290000.000000,0.219055, -1.000000, 0.010590,0.124176, 0.052612, -0.229340,0.014587, 0.192017, -0.089447
831, 8300000.000000,0.218018, -1.000000, -0.007965,0.162598, 0.018860, -0.299988,0.027832, 0.197876, -0.101074
832, 8310000.000000,0.218018, -1.000000, -0.007965,0.162598, 0.018860, -0.299988,0.027832, 0.197876, -0.101074
833, 8320000.000000,0.194366, -1.000000, -0.012512,0.162598, 0.018860, -0.299988,0.027832, 0.197876, -0.101074
834, 8330000.000000,0.194366, -1.000000, -0.012512,0.162598, 0.018860, -0.299988,0.027832, 0.197876, -0.101074
835, 8340000.000000,0.166565, -1.000000, 0.002411,0.201660, -0.023041, -0.381348,0.045288, 0.203033, -0.109924
836, 8350000.000000,0.166565, -1.000000, 0.002411,0.197083, -0.023041, -0.381348,0.045288, 0.203033, -0.109924
837, 8360000.000000,0.158752, -1.000000, 0.034088,0.197083, -0.023041, -0.381348,0.045288, 0.203033, -0.109924
838, 8370000.000000,0.158844, -1.000000, 0.034088,0.197083, -0.023041, -0.381348,0.045288, 0.203033, -0.109924
839, 8380000.000000,0.171021, -1.000000, 0.073914,0.234497, -0.030975, -0.401001,0.055054, 0.207672, -0.107941
840, 8390000.000000,0.171021, -1.000000, 0.073914,0.234497, -0.030975, -0.401001,0.055054, 0.207672, -0.107941
841, 8400000.000000,0.171021, -1.000000, 0.118835,0.234497, -0.030975, -0.401001,0.055054, 0.207672, -0.107941
842, 8410000.000000,0.193512, -1.000000, 0.118835,0.234497, -0.030975, -0.401001,0.055054, 0.207672, -0.107941
843, 8420000.000000,0.193512, -1.000000, 0.118835,0.251160, -0.035950, -0.369659,0.071289, 0.202667, -0.100189
844, 8430000.000000,0.213745, -1.000000, 0.163910,0.251160, -0.035950, -0.369659,0.071289, 0.202667, -0.100189
845, 8440000.000000,0.213745, -1.000000, 0.163910,0.251160, -0.035950, -0.369659,0.071289, 0.202667, -0.100189
846, 8450000.000000,0.226868, -1.000000, 0.203064,0.251160, -0.035950, -0.369659,0.071289, 0.202667, -0.100189
847, 8460000.000000,0.226868, -1.000000, 0.203064,0.251160, -0.035950, -0.369659,0.071289, 0.202667, -0.102448
848, 8470000.000000,0.226868, -1.000000, 0.203064,0.283142, -0.030792, -0.387146,0.080109, 0.200623, -0.102448
849, 8480000.000000,0.235352, -0.992889, 0.231812,0.283142, -0.030792, -0.387146,0.080109, 0.200623, -0.102448
850, 8490000.000000,0.235352, -0.992889, 0.257690,0.283142, -0.030792, -0.387146,0.080109, 0.200623, -0.102448
851, 8500000.000000,0.236725, -0.935699, 0.257690,0.283142, -0.030792, -0.456665,0.092316, 0.199280, -0.105011
852, 8510000.000000,0.236725, -0.935699, 0.257690,0.331665, -0.072052, -0.456665,0.092316, 0.199280, -0.105011
853, 8520000.000000,0.217957, -0.864563, 0.285248,0.331665, -0.072052, -0.456665,0.092316, 0.199280, -0.105011
854, 8530000.000000,0.217957, -0.864563, 0.285248,0.331665, -0.072052, -0.456665,0.092316, 0.199280, -0.105011
855, 8540000.000000,0.171997, -0.803436, 0.312256,0.331665, -0.072052, -0.456665,0.100128, 0.196106, -0.091156
856, 8550000.000000,0.171997, -0.803436, 0.312256,0.388092, -0.108032, -0.509766,0.100922, 0.196106, -0.091156
857, 8560000.000000,0.118042, -0.755035, 0.329315,0.388092, -0.108032, -0.509766,0.100922, 0.196106, -0.091156
858, 8570000.000000,0.118042, -0.755035, 0.329315,0.388092, -0.108032, -0.509766,0.100922, 0.196106, -0.091156
859, 8580000.000000,0.118042, -0.755035, 0.325317,0.388092, -0.108032, -0.509766,0.116547, 0.197723, -0.094086
860, 8590000.000000,0.088562, -0.723785, 0.325317,0.506622, -0.083344, -0.533539,0.109741, 0.197723, -0.094086
861, 8600000.000000,0.120758, -0.735229, 0.308685,0.506622, -0.083344, -0.533539,0.109741, 0.197723, -0.094086
862, 8610000.000000,0.120758, -0.735229, 0.308685,0.506622, -0.083344, -0.533539,0.109741, 0.197723, -0.094086
863, 8620000.000000,0.331696, -0.778015, 0.292664,0.631622, 0.033234, -0.320068,0.115997, 0.193359, -0.084076
864, 8630000.000000,0.333801, -0.778015, 0.292664,0.630005, 0.033234, -0.320068,0.115997, 0.193359, -0.084076
865, 8640000.000000,0.333801, -0.778015, 0.292664,0.630005, 0.033234, -0.320068,0.115997, 0.193359, -0.084076
866, 8650000.000000,0.422546, -0.728821, 0.272980,0.630005, 0.033234, -0.320068,0.115997, 0.193359, -0.084076
867, 8660000.000000,0.422546, -0.728821, 0.272980,0.809692, -0.034271, -0.040527,0.125122, 0.193878, -0.079895
868, 8670000.000000,0.309357, -0.605591, 0.275299,0.808350, -0.034271, -0.040527,0.125122, 0.193878, -0.079895
869, 8680000.000000,0.309357, -0.605591, 0.275299,0.808350, -0.034271, -0.040527,0.125122, 0.193878, -0.079895
870, 8690000.000000,0.137085, -0.372742, 0.347015,0.808350, -0.034271, -0.040527,0.125122, 0.193878, -0.079895
871, 8700000.000000,0.137085, -0.372742, 0.347015,0.808350, -0.034271, -0.040527,0.125122, 0.193329, -0.080444
872, 8710000.000000,0.137085, -0.372742, 0.347015,0.999756, 0.156830, 0.629974,0.131134, 0.193329, -0.080444
873, 8720000.000000,-0.072357, 0.289185, 0.238495,0.999756, 0.156830, 0.629974,0.131134, 0.193329, -0.080444
874, 8730000.000000,-0.072357, 0.289185, 0.238495,0.999756, 0.156830, 0.629974,0.131134, 0.193329, -0.080444
875, 8740000.000000,-0.259277, 0.651001, 0.052399,0.999756, 0.156830, 0.629974,0.131134, 0.192230, -0.092377
876, 8750000.000000,-0.259277, 0.651001, 0.052399,-0.379333, -0.049072, 0.066986,0.120789, 0.192230, -0.092377
877, 8760000.000000,-0.349335, 0.934967, -0.079102,-0.379333, -0.049072, 0.066986,0.120789, 0.192230, -0.092377
878, 8770000.000000,-0.349335, 0.934967, -0.079102,-0.379333, -0.049072, 0.066986,0.120789, 0.192230, -0.092377
879, 8780000.000000,-0.131348, 0.982666, 0.016113,-0.379333, -0.049072, 0.066986,0.112976, 0.198029, -0.105164
880, 8790000.000000,-0.131348, 0.982666, 0.016113,0.461487, -0.204315, -0.897125,0.109772, 0.198029, -0.105164
881, 8800000.000000,0.090210, 0.714874, 0.156464,0.461487, -0.204315, -0.897125,0.109772, 0.198029, -0.105164
882, 8810000.000000,0.090210, 0.714874, 0.156464,0.461487, -0.204315, -0.897125,0.109772, 0.198029, -0.105164
883, 8820000.000000,0.034515, 0.587891, 0.165344,-0.085388, 0.216797, -0.169342,0.099945, 0.197784, -0.109039
884, 8830000.000000,0.034515, 0.587891, 0.165344,-0.084534, 0.216797, -0.169342,0.099945, 0.197784, -0.109039
885, 8840000.000000,0.104828, 0.844879, 0.077423,-0.084534, 0.216797, -0.169342,0.099945, 0.197784, -0.109039
886, 8850000.000000,0.108826, 0.844879, 0.077423,-0.084534, 0.216797, -0.169342,0.099945, 0.197784, -0.109039
887, 8860000.000000,0.108826, 0.844879, -0.077759,-0.084534, 0.037109, -0.807037,0.088348, 0.196899, -0.116577
888, 8870000.000000,0.006622, 0.798065, -0.077759,-0.027771, 0.034973, -0.807037,0.088348, 0.196899, -0.116577
889, 8880000.000000,0.006622, 0.798065, -0.077759,-0.027771, 0.034973, -0.807037,0.088348, 0.196899, -0.116577
890, 8890000.000000,-0.140411, 0.607758, 0.016022,-0.027771, 0.034973, -0.807037,0.088348, 0.196899, -0.116577
891, 8900000.000000,-0.140411, 0.607758, 0.016022,-0.027771, 0.034973, -0.166412,0.085724, 0.192261, -0.114349
892, 8910000.000000,-0.323639, 0.099487, 0.054474,-0.123566, 0.128876, -0.169800,0.085724, 0.192261, -0.114349
893, 8920000.000000,-0.323639, 0.099487, 0.054474,-0.123566, 0.128876, -0.169800,0.085724, 0.192261, -0.114349
894, 8930000.000000,-0.201538, 0.144928, 0.043365,-0.123566, 0.128876, -0.169800,0.085724, 0.192261, -0.114349
895, 8940000.000000,-0.201538, 0.144928, 0.043365,-0.123566, 0.128876, -0.169800,0.085724, 0.188507, -0.112885
896, 8950000.000000,-0.201538, 0.144928, 0.027710,0.014404, -0.032593, -0.358398,0.081909, 0.188507, -0.112885
897, 8960000.000000,-0.137573, 0.092133, 0.027710,0.014404, -0.032593, -0.358398,0.081909, 0.188507, -0.112885
898, 8970000.000000,-0.137573, 0.092133, 0.027710,0.014404, -0.032593, -0.358398,0.081909, 0.188507, -0.112885
899, 8980000.000000,-0.087646, 0.029419, 0.006348,0.014404, -0.032593, -0.358398,0.081909, 0.196320, -0.118622
900, 8990000.000000,-0.087646, 0.029419, 0.006348,-0.020172, -0.045685, -0.263245,0.088257, 0.195343, -0.118622
901, 9000000.000000,-0.064423, 0.027649, 0.001282,-0.020172, -0.045685, -0.263245,0.088257, 0.195343, -0.118622
902, 9010000.000000,-0.064423, 0.027649, 0.001282,-0.020172, -0.045685, -0.263245,0.088257, 0.195343, -0.118622
903, 9020000.000000,-0.058807, 0.011841, -0.004395,-0.020172, -0.045685, -0.263245,0.088257, 0.193268, -0.109741
904, 9030000.000000,-0.058807, 0.011841, -0.004395,-0.024750, -0.008026, -0.264404,0.087402, 0.193268, -0.109741
905, 9040000.000000,-0.032684, 0.014252, -0.008423,-0.024750, -0.008026, -0.264404,0.087402, 0.193268, -0.109741
906, 9050000.000000,-0.032684, 0.014252, -0.008423,-0.024750, -0.008026, -0.264404,0.087402, 0.193268, -0.109741
907, 9060000.000000,-0.024872, 0.013763, -0.013672,-0.024750, -0.008026, -0.264404,0.079865, 0.188873, -0.118469
908, 9070000.000000,-0.024353, 0.013763, -0.013672,-0.029602, -0.008209, -0.246216,0.079865, 0.188873, -0.118469
909, 9080000.000000,-0.024353, 0.013763, -0.016174,-0.029602, -0.008209, -0.246216,0.079865, 0.188873, -0.118469
910, 9090000.000000,-0.012085, 0.025391, -0.016174,-0.029602, -0.008209, -0.246216,0.079865, 0.188873, -0.118469
911, 9100000.000000,-0.012085, 0.025391, -0.016174,-0.029602, -0.008209, -0.246216,0.079865, 0.188995, -0.125793
912, 9110000.000000,-0.000183, 0.038422, -0.018158,-0.016205, -0.019012, -0.258942,0.086639, 0.188995, -0.125793
913, 9120000.000000,-0.000183, 0.038422, -0.018158,-0.016205, -0.019012, -0.258942,0.086639, 0.188995, -0.125793
914, 9130000.000000,0.005341, 0.031647, -0.018860,-0.016205, -0.019012, -0.258942,0.086639, 0.188995, -0.125793
915, 9140000.000000,0.005341, 0.031647, -0.018860,-0.016205, -0.019012, -0.258942,0.086639, 0.188995, -0.125793
916, 9150000.000000,0.023956, 0.024139, -0.016266,-0.016785, -0.014374, -0.269012,0.082123, 0.190674, -0.127136
917, 9160000.000000,0.023956, 0.024139, -0.016266,-0.016785, -0.014374, -0.269012,0.082123, 0.190674, -0.127136
918, 9170000.000000,0.023956, 0.024139, -0.014282,-0.016785, -0.014374, -0.269012,0.082123, 0.190674, -0.127136
919, 9180000.000000,0.035828, 0.016815, -0.014282,-0.016785, -0.014374, -0.269012,0.082123, 0.190674, -0.127136
920, 9190000.000000,0.035828, 0.016815, -0.014282,-0.019257, -0.025513, -0.257446,0.090515, 0.193115, -0.127899
921, 9200000.000000,0.040649, 0.011353, -0.016785,-0.019257, -0.025513, -0.257446,0.090515, 0.193115, -0.127899
922, 9210000.000000,0.040649, 0.011353, -0.016785,-0.019257, -0.025513, -0.257446,0.090515, 0.193115, -0.127899
923, 9220000.000000,0.037811, 0.013062, -0.017242,-0.019257, -0.025513, -0.257446,0.090515, 0.193115, -0.121918
924, 9230000.000000,0.037811, 0.013062, -0.017242,-0.025574, -0.029510, -0.251831,0.087524, 0.192902, -0.121918
925, 9240000.000000,0.026001, 0.019135, -0.011414,-0.025574, -0.029510, -0.251831,0.087524, 0.192902, -0.121918
926, 9250000.000000,0.026001, 0.019135, -0.011414,-0.025574, -0.029510, -0.251831,0.087524, 0.192902, -0.121918
927, 9260000.000000,0.015198, 0.024261, -0.013947,-0.025574, -0.029510, -0.251831,0.087524, 0.192902, -0.121918
928, 9270000.000000,0.015198, 0.024261, -0.013947,-0.023499, -0.029785, -0.255249,0.086731, 0.192230, -0.122711
929, 9280000.000000,0.015198, 0.024261, -0.014526,-0.023499, -0.029785, -0.255249,0.086731, 0.192230, -0.122711
930, 9290000.000000,0.006165, 0.025574, -0.014526,-0.023499, -0.029785, -0.255249,0.086731, 0.192230, -0.122711
931, 9300000.000000,0.006165, 0.025574, -0.014526,-0.023499, -0.029785, -0.255249,0.086731, 0.192230, -0.122711
932, 9310000.000000,-0.003693, 0.019073, -0.015015,-0.020111, -0.021698, -0.258423,0.078857, 0.182922, -0.121765
933, 9320000.000000,-0.003693, 0.019073, -0.015015,-0.020111, -0.021698, -0.258423,0.078857, 0.182922, -0.121765
934, 9330000.000000,-0.009735, 0.013641, -0.012054,-0.020111, -0.021698, -0.258423,0.078857, 0.182922, -0.121765
935, 9340000.000000,-0.009735, 0.013641, -0.012054,-0.020111, -0.021698, -0.258423,0.078857, 0.182922, -0.121765
936, 9350000.000000,-0.000793, 0.006927, -0.009674,-0.021851, -0.022308, -0.257782,0.082184, 0.190796, -0.116425
937, 9360000.000000,-0.000793, 0.006927, -0.009674,-0.021851, -0.022308, -0.257782,0.082184, 0.190796, -0.116425
938, 9370000.000000,-0.003540, 0.010773, -0.008667,-0.021851, -0.022308, -0.257782,0.082184, 0.190796, -0.116425
939, 9380000.000000,-0.003540, 0.010773, -0.008667,-0.021851, -0.022308, -0.257782,0.082184, 0.190796, -0.116425
940, 9390000.000000,-0.003540, 0.010773, -0.009338,-0.024323, -0.025360, -0.252747,0.081909, 0.191742, -0.118591
941, 9400000.000000,-0.007965, 0.013092, -0.009338,-0.024323, -0.025360, -0.252747,0.081909, 0.191742, -0.118591
942, 9410000.000000,-0.007965, 0.016418, -0.009491,-0.024323, -0.025360, -0.252747,0.081909, 0.191742, -0.118591
943, 9420000.000000,-0.008575, 0.016418, -0.009491,-0.024323, -0.025360, -0.252747,0.081909, 0.191742, -0.125061
944, 9430000.000000,-0.008575, 0.016418, -0.012329,-0.025391, -0.026489, -0.253265,0.085205, 0.193970, -0.125061
945, 9440000.000000,-0.015442, 0.019440, -0.012329,-0.025391, -0.026489, -0.253265,0.085205, 0.193970, -0.125061
946, 9450000.000000,-0.015442, 0.019440, -0.012329,-0.025391, -0.026489, -0.253265,0.085205, 0.193970, -0.125061
947, 9460000.000000,-0.019348, 0.020477, -0.013489,-0.025391, -0.026489, -0.253265,0.085205, 0.193970, -0.117249
948, 9470000.000000,-0.019348, 0.020477, -0.013489,-0.021484, -0.024689, -0.252930,0.083618, 0.191437, -0.121674
949, 9480000.000000,-0.020050, 0.022125, -0.015076,-0.021484, -0.024689, -0.252930,0.083618, 0.191437, -0.121674
950, 9490000.000000,-0.020050, 0.022125, -0.015076,-0.021484, -0.024689, -0.252930,0.083618, 0.191437, -0.121674
951, 9500000.000000,-0.024078, 0.022034, -0.014984,-0.021484, -0.024689, -0.252930,0.083618, 0.191437, -0.121674
952, 9510000.000000,-0.024078, 0.022034, -0.014984,-0.023376, -0.016815, -0.256958,0.082001, 0.185211, -0.123535
953, 9520000.000000,-0.031891, 0.024170, -0.014954,-0.023376, -0.016815, -0.256958,0.082001, 0.185211, -0.123535
954, 9530000.000000,-0.033295, 0.024170, -0.014954,-0.023376, -0.016815, -0.256958,0.082001, 0.185211, -0.123535
955, 9540000.000000,-0.033295, 0.024170, -0.014954,-0.023376, -0.016815, -0.256958,0.082001, 0.185211, -0.123535
956, 9550000.000000,-0.037537, 0.034485, -0.023315,-0.029938, -0.012756, -0.251434,0.083344, 0.188507, -0.121582
957, 9560000.000000,-0.037537, 0.034485, -0.023315,-0.029938, -0.012756, -0.251434,0.083344, 0.188507, -0.121582
958, 9570000.000000,-0.044983, 0.056519, -0.036682,-0.029938, -0.012756, -0.251434,0.083344, 0.188507, -0.121582
959, 9580000.000000,-0.044983, 0.056519, -0.036682,-0.029938, -0.012756, -0.251434,0.083344, 0.188507, -0.121582
960, 9590000.000000,-0.044983, 0.095581, -0.030334,-0.029938, -0.009674, -0.255676,0.083527, 0.188629, -0.125458
961, 9600000.000000,-0.033478, 0.095703, -0.030334,-0.030518, -0.009674, -0.255676,0.083527, 0.188629, -0.125458
962, 9610000.000000,-0.033478, 0.095703, -0.030334,-0.030518, -0.009674, -0.255676,0.083527, 0.188629, -0.125458
963, 9620000.000000,-0.024445, 0.123962, -0.034546,-0.030518, -0.009674, -0.255676,0.083527, 0.188629, -0.125458
964, 9630000.000000,-0.024445, 0.123962, -0.034546,-0.030518, -0.009674, -0.259369,0.081238, 0.194550, -0.126068
965, 9640000.000000,-0.013092, 0.130524, -0.044922,-0.016235, -0.007050, -0.259369,0.081238, 0.194550, -0.126068
966, 9650000.000000,-0.013092, 0.130524, -0.044922,-0.016235, -0.007050, -0.259369,0.081238, 0.194550, -0.126068
967, 9660000.000000,0.003021, 0.133057, -0.031372,-0.016235, -0.007050, -0.259369,0.081238, 0.194550, -0.126068
968, 9670000.000000,0.003021, 0.133057, -0.031372,-0.007019, -0.014404, -0.253113,0.082092, 0.189911, -0.128296
969, 9680000.000000,0.025299, 0.117554, -0.018921,-0.007019, -0.014404, -0.253113,0.082092, 0.189911, -0.128296
970, 9690000.000000,0.025299, 0.117554, -0.018921,-0.007019, -0.014404, -0.253113,0.082092, 0.189911, -0.128296
971, 9700000.000000,0.043427, 0.101196, -0.002960,-0.007019, -0.014404, -0.253113,0.082092, 0.189911, -0.128296
972, 9710000.000000,0.043427, 0.101196, -0.002960,0.000793, -0.025543, -0.256561,0.076141, 0.185028, -0.121643
973, 9720000.000000,0.043427, 0.101196, 0.005646,0.000732, -0.025543, -0.256561,0.076141, 0.185028, -0.121643
974, 9730000.000000,0.045013, 0.062073, 0.005646,0.000732, -0.025543, -0.256561,0.076141, 0.185028, -0.121643
975, 9740000.000000,0.045013, 0.062073, 0.005646,0.000732, -0.025543, -0.256561,0.076141, 0.185028, -0.121643
976, 9750000.000000,0.045380, 0.045227, 0.020844,0.000732, -0.025543, -0.256561,0.076141, 0.190460, -0.125031
977, 9760000.000000,0.045380, 0.045227, 0.020844,-0.003296, -0.027649, -0.257965,0.079559, 0.190460, -0.125031
978, 9770000.000000,0.040466, 0.035217, 0.019318,-0.003296, -0.027649, -0.257965,0.079559, 0.190460, -0.125031
979, 9780000.000000,0.040466, 0.035217, 0.019318,-0.003296, -0.027649, -0.257965,0.079559, 0.190460, -0.125031
980, 9790000.000000,0.040466, 0.035217, 0.019318,-0.003296, -0.027649, -0.257965,0.079559, 0.190460, -0.125031
981, 9800000.000000,0.043365, 0.036316, 0.017456,-0.010529, -0.028198, -0.252808,0.077179, 0.192474, -0.119171
982, 9810000.000000,0.043365, 0.036316, 0.017456,-0.010529, -0.028198, -0.252808,0.077179, 0.192474, -0.119171
983, 9820000.000000,0.041107, 0.041870, 0.007141,-0.010529, -0.028198, -0.252808,0.077179, 0.192474, -0.119171
984, 9830000.000000,0.041107, 0.041870, 0.007141,-0.010529, -0.028198, -0.252808,0.077179, 0.192474, -0.116058
985, 9840000.000000,0.034271, 0.067413, 0.002991,-0.015778, -0.029846, -0.257416,0.080994, 0.191345, -0.116058
986, 9850000.000000,0.034271, 0.067413, 0.002991,-0.015778, -0.029846, -0.257416,0.080994, 0.191345, -0.116058
987, 9860000.000000,0.027832, 0.093292, 0.001068,-0.015778, -0.029846, -0.257416,0.080994, 0.191345, -0.116058
988, 9870000.000000,0.027832, 0.093292, 0.001068,-0.015778, -0.029846, -0.257416,0.080994, 0.191345, -0.116058
989, 9880000.000000,0.021393, 0.115173, 0.008636,-0.020966, -0.025879, -0.259216,0.075409, 0.193573, -0.126099
990, 9890000.000000,0.021393, 0.115173, 0.008636,-0.020966, -0.025879, -0.259216,0.075409, 0.193573, -0.126099
991, 9900000.000000,0.021393, 0.154724, 0.009552,-0.020966, -0.025879, -0.259216,0.075409, 0.193573, -0.126099
992, 9910000.000000,0.021973, 0.154724, 0.009552,-0.020966, -0.025879, -0.259216,0.075409, 0.193573, -0.126099
993, 9920000.000000,0.021973, 0.154724, 0.009552,-0.004822, -0.020325, -0.269623,0.075684, 0.189331, -0.118439
994, 9930000.000000,0.021362, 0.180023, 0.015198,-0.004822, -0.020325, -0.269623,0.075684, 0.189331, -0.118439
995, 9940000.000000,0.021362, 0.180023, 0.015198,-0.004822, -0.020325, -0.269623,0.075684, 0.189331, -0.118439
996, 9950000.000000,-0.001556, 0.204620, -0.008911,-0.004822, -0.020325, -0.269623,0.075684, 0.189331, -0.118439
997, 9960000.000000,-0.001556, 0.204620, -0.008911,0.007538, -0.017395, -0.272797,0.067810, 0.189453, -0.122070
998, 9970000.000000,-0.002655, 0.279816, -0.017090,0.007538, -0.017395, -0.272797,0.067810, 0.189453, -0.122070
999, 9980000.000000,-0.002655, 0.279816, -0.017090,0.007538, -0.017395, -0.272797,0.067810, 0.189453, -0.122070
1000, 9990000.000000,-0.012299, 0.248596, -0.066010,0.007538, -0.017395, -0.272797,0.067810, 0.189453, -0.122070
1001, 10000000.000000,-0.012299, 0.248596, -0.066010,-0.340851, 0.006439, -0.237366,0.065125, 0.190308, -0.126709
1002, 10010000.000000,-0.012299, 0.248596, -0.245697,-0.340851, 0.006439, -0.237366,0.065125, 0.190308, -0.126709
1003, 10020000.000000,0.167206, 0.427399, -0.243896,-0.340851, 0.006439, -0.237366,0.065125, 0.190308, -0.126709
1004, 10030000.000000,0.167206, 0.427399, -0.243896,-0.340851, 0.006439, -0.237366,0.065125, 0.190308, -0.126709
1005, 10040000.000000,0.471863, 0.898651, -0.155060,-0.150330, 0.100891, -0.639557,0.053284, 0.200256, -0.118988
1006, 10050000.000000,0.471863, 0.898651, -0.370911,-0.150330, 0.100891, -0.639557,0.053284, 0.200256, -0.118988
1007, 10060000.000000,0.614746, 0.989258, -0.370911,-0.150330, 0.100891, -0.639557,0.053284, 0.200256, -0.118988
1008, 10070000.000000,0.614746, 0.989258, -0.485718,-0.150330, 0.100891, -0.447327,0.025238, 0.198242, -0.108582
1009, 10080000.000000,0.525726, 0.989258, -0.485718,-0.055847, -0.055695, -0.447327,0.025238, 0.198242, -0.108582
1010, 10090000.000000,0.525726, 0.989258, -0.485718,-0.055847, -0.055695, -0.447327,0.025238, 0.198242, -0.108582
1011, 10100000.000000,0.601044, 0.989258, -0.497864,-0.055847, -0.055695, -0.447327,0.025238, 0.198242, -0.108582
1012, 10110000.000000,0.601044, 0.989258, -0.497864,-0.055847, -0.055695, -0.447327,0.025238, 0.190247, -0.089630
1013, 10120000.000000,0.490448, 0.989258, -0.694122,-0.180267, -0.020203, -0.299805,-0.014893, 0.190247, -0.089630
1014, 10130000.000000,0.490448, 0.989258, -0.694122,-0.180267, -0.020203, -0.299805,-0.014893, 0.190247, -0.089630
1015, 10140000.000000,0.284424, 0.989258, -0.922089,-0.180267, -0.020203, -0.299805,-0.014893, 0.190247, -0.089630
1016, 10150000.000000,0.284424, 0.989258, -0.922089,-0.180267, -0.020203, -0.299805,-0.014893, 0.182434, -0.055603
1017, 10160000.000000,0.370361, 0.989258, -0.800354,-0.289185, 0.165344, 0.117004,-0.034363, 0.179871, -0.055603
1018, 10170000.000000,0.369049, 0.989258, -0.800354,-0.289185, 0.165344, 0.117004,-0.034363, 0.179871, -0.055603
1019, 10180000.000000,0.369049, 0.989258, -0.800354,-0.289185, 0.165344, 0.117004,-0.034363, 0.179871, -0.055603
1020, 10190000.000000,0.784088, 0.989258, -0.974670,-0.289185, 0.165344, 0.117004,-0.034363, 0.179871, -0.055603
1021, 10200000.000000,0.784088, 0.989258, -0.974670,0.449921, -0.097046, -0.990784,-0.051819, 0.166565, -0.029541
1022, 10210000.000000,0.505615, 0.977264, -0.951660,0.449921, -0.097046, -0.990784,-0.051819, 0.166565, -0.029541
1023, 10220000.000000,0.505615, 0.977264, -0.951660,0.449921, -0.097046, -0.990784,-0.051819, 0.166565, -0.029541
1024, 10230000.000000,0.349792, 0.466156, -0.865417,0.449921, -0.097046, -0.990784,-0.051819, 0.166565, -0.029541
1025, 10240000.000000,0.349792, 0.466156, -0.865417,-0.193970, -0.564423, -0.989868,-0.063477, 0.159485, -0.036621
1026, 10250000.000000,0.159363, -0.318573, -0.611816,-0.193970, -0.564423, -0.989868,-0.063477, 0.159485, -0.036621
1027, 10260000.000000,0.159363, -0.318573, -0.611816,-0.193970, -0.564423, -0.989868,-0.063477, 0.159485, -0.036621
1028, 10270000.000000,-0.072723, -0.656708, -0.315399,-0.193970, -0.564423, -0.989868,-0.063477, 0.159485, -0.036621
1029, 10280000.000000,-0.285614, -1.000000, 0.209930,-0.017700, -0.110260, -0.153229,-0.059021, 0.147003, -0.094299
1030, 10290000.000000,-0.143768, -1.000000, 0.226746,-0.017700, -0.110260, -0.153229,-0.059021, 0.147003, -0.094299
1031, 10300000.000000,-0.143768, -1.000000, 0.226746,-0.017700, -0.110260, -0.153229,-0.059021, 0.147003, -0.094299
1032, 10310000.000000,-0.143768, -1.000000, 0.217529,0.049225, -0.029114, -0.225311,-0.050232, 0.149261, -0.109375
1033, 10320000.000000,-0.024658, -1.000000, 0.217529,0.049225, -0.029114, -0.225311,-0.050232, 0.149261, -0.109375
1034, 10330000.000000,-0.024658, -1.000000, 0.217529,0.049225, -0.029114, -0.225311,-0.050232, 0.149261, -0.109375
1035, 10340000.000000,0.063263, -1.000000, 0.181458,0.049225, -0.029114, -0.225311,-0.050232, 0.149261, -0.109375
1036, 10350000.000000,0.063263, -1.000000, 0.181458,0.078156, 0.013977, -0.243896,-0.039154, 0.161255, -0.126892
1037, 10360000.000000,0.119110, -1.000000, 0.133911,0.078156, 0.013977, -0.243896,-0.039154, 0.161255, -0.126892
1038, 10370000.000000,0.119110, -1.000000, 0.133911,0.078156, 0.013977, -0.243896,-0.039154, 0.161255, -0.126892
1039, 10380000.000000,0.131104, -1.000000, 0.090607,0.078156, 0.013977, -0.243896,-0.039154, 0.161255, -0.126892
1040, 10390000.000000,0.131104, -1.000000, 0.090607,0.104797, 0.019318, -0.248688,-0.026184, 0.162231, -0.137665
1041, 10400000.000000,0.131104, -1.000000, 0.056610,0.104797, 0.019318, -0.248688,-0.026184, 0.162231, -0.137665
1042, 10410000.000000,0.128510, -1.000000, 0.056610,0.104797, 0.019318, -0.248688,-0.026184, 0.162231, -0.137665
1043, 10420000.000000,0.128510, -1.000000, 0.056610,0.104797, 0.019318, -0.248688,-0.026184, 0.162231, -0.137665
1044, 10430000.000000,0.134613, -1.000000, 0.023956,0.126740, 0.034210, -0.243347,-0.015320, 0.165894, -0.152039
1045, 10440000.000000,0.134613, -1.000000, 0.023956,0.126740, 0.034210, -0.243347,-0.015320, 0.165894, -0.152039
1046, 10450000.000000,0.153961, -1.000000, -0.004028,0.126740, 0.034210, -0.243347,-0.015320, 0.165894, -0.152039
1047, 10460000.000000,0.153961, -1.000000, -0.004028,0.126740, 0.034210, -0.243347,-0.015320, 0.165894, -0.152039
1048, 10470000.000000,0.168549, -1.000000, -0.020203,0.149963, -0.006378, -0.269989,-0.007385, 0.172882, -0.165710
1049, 10480000.000000,0.168549, -1.000000, -0.020203,0.149963, -0.006378, -0.269989,-0.007385, 0.172882, -0.165710
1050, 10490000.000000,0.176361, -1.000000, -0.017273,0.149963, -0.006378, -0.269989,-0.007385, 0.172882, -0.165710
1051, 10500000.000000,0.173248, -1.000000, -0.017273,0.149963, -0.006378, -0.269989,-0.007385, 0.172882, -0.165710
1052, 10510000.000000,0.173248, -1.000000, 0.008759,0.187927, -0.064728, -0.371399,0.014984, 0.187134, -0.181854
1053, 10520000.000000,0.168457, -1.000000, 0.008759,0.187927, -0.064728, -0.371399,0.014984, 0.187134, -0.181854
1054, 10530000.000000,0.168457, -1.000000, 0.008759,0.187927, -0.064728, -0.371399,0.014984, 0.187134, -0.181854
1055, 10540000.000000,0.162262, -1.000000, 0.057465,0.187927, -0.064728, -0.371399,0.014984, 0.187134, -0.181854
1056, 10550000.000000,0.162262, -1.000000, 0.057465,0.187927, -0.064728, -0.388245,0.038940, 0.202057, -0.177582
1057, 10560000.000000,0.162201, -1.000000, 0.116333,0.247620, -0.069397, -0.388245,0.038940, 0.202057, -0.177582
1058, 10570000.000000,0.162201, -1.000000, 0.116333,0.247620, -0.069397, -0.388245,0.038940, 0.202057, -0.177582
1059, 10580000.000000,0.172485, -1.000000, 0.177887,0.247620, -0.069397, -0.388245,0.038940, 0.202057, -0.177582
1060, 10590000.000000,0.172485, -1.000000, 0.177887,0.247620, -0.060181, -0.383850,0.075409, 0.203003, -0.174774
1061, 10600000.000000,0.172485, -1.000000, 0.241791,0.276764, -0.060181, -0.383850,0.075409, 0.203003, -0.174774
1062, 10610000.000000,0.176331, -1.000000, 0.241791,0.276764, -0.060181, -0.383850,0.075409, 0.203003, -0.174774
1063, 10620000.000000,0.176331, -1.000000, 0.241791,0.276764, -0.060181, -0.383850,0.075409, 0.203003, -0.174774
1064, 10630000.000000,0.174347, -1.000000, 0.296844,0.276764, -0.060181, -0.383850,0.106659, 0.201874, -0.159119
1065, 10640000.000000,0.174347, -1.000000, 0.296844,0.314148, -0.024231, -0.414948,0.102234, 0.201874, -0.159119
1066, 10650000.000000,0.163910, -0.995880, 0.334808,0.314148, -0.024231, -0.414948,0.102234, 0.201874, -0.159119
1067, 10660000.000000,0.163910, -0.995880, 0.334808,0.314148, -0.024231, -0.414948,0.102234, 0.201874, -0.159119
1068, 10670000.000000,0.150116, -0.954132, 0.362427,0.314148, -0.032043, -0.438782,0.123566, 0.194305, -0.144714
1069, 10680000.000000,0.150116, -0.954132, 0.362427,0.353180, -0.031403, -0.438782,0.123566, 0.194305, -0.144714
1070, 10690000.000000,0.135651, -0.882812, 0.384888,0.353180, -0.031403, -0.438782,0.123566, 0.194305, -0.144714
1071, 10700000.000000,0.135651, -0.882812, 0.384888,0.353180, -0.031403, -0.438782,0.123566, 0.194305, -0.144714
1072, 10710000.000000,0.116791, -0.808533, 0.396881,0.353180, -0.031403, -0.499695,0.140198, 0.191589, -0.133667
