Index,Time(us), GyroX , GyroY , GyroZ ,AccX , AccY , AccZ , MagX , MagY , MagZ
1, 0.000000,-0.000397, 0.011078, -0.015869,-0.016907, -0.023285, -0.254486,0.120056, -0.000854, 0.111755
2, 10000.000000,-0.000397, 0.011078, -0.015869,-0.016907, -0.023285, -0.254486,0.120056, -0.000854, 0.111755
3, 20000.000000,0.007416, 0.011353, -0.016174,-0.016907, -0.023285, -0.254486,0.120056, -0.000854, 0.111755
4, 30000.000000,0.000305, 0.011353, -0.016174,-0.016571, -0.024078, -0.250244,0.124420, -0.000183, 0.109772
5, 40000.000000,0.000305, 0.011353, -0.016174,-0.016571, -0.024078, -0.250244,0.124420, -0.000183, 0.109772
6, 50000.000000,-0.000641, 0.012512, -0.016113,-0.016571, -0.024078, -0.250244,0.124420, -0.000183, 0.109772
7, 60000.000000,-0.000641, 0.012512, -0.016113,-0.016571, -0.024078, -0.250244,0.124420, -0.000183, 0.109772
8, 70000.000000,-0.001404, 0.012573, -0.015594,-0.015839, -0.023651, -0.254791,0.120056, -0.000916, 0.113739
9, 80000.000000,-0.001404, 0.012573, -0.015594,-0.015839, -0.023651, -0.254791,0.120056, -0.000916, 0.113739
10, 90000.000000,-0.001404, 0.012573, -0.015594,-0.015839, -0.023651, -0.254791,0.120056, -0.000916, 0.113739
11, 100000.000000,-0.000916, 0.011627, -0.016602,-0.015839, -0.023651, -0.254791,0.120056, -0.000916, 0.113739
12, 110000.000000,-0.000916, 0.011627, -0.016602,-0.015839, -0.023651, -0.254791,0.120056, -0.000916, 0.112579
13, 120000.000000,-0.000275, 0.011871, -0.016022,-0.018982, -0.023102, -0.254272,0.124146, -0.002136, 0.112579
14, 130000.000000,-0.000275, 0.011871, -0.016022,-0.018982, -0.023102, -0.254272,0.124146, -0.002136, 0.112579
15, 140000.000000,-0.000275, 0.011871, -0.015778,-0.018982, -0.023102, -0.254272,0.124146, -0.002136, 0.112579
16, 150000.000000,0.000214, 0.010895, -0.015778,-0.018982, -0.023102, -0.254272,0.124146, -0.002136, 0.112579
17, 160000.000000,0.000214, 0.010895, -0.015778,-0.016907, -0.024200, -0.252930,0.121735, 0.000305, 0.103821
18, 170000.000000,-0.000671, 0.011841, -0.015808,-0.016907, -0.024200, -0.252930,0.121735, 0.000305, 0.103821
19, 180000.000000,-0.000671, 0.011841, -0.015808,-0.016907, -0.024200, -0.252930,0.121735, 0.000305, 0.103821
20, 190000.000000,-0.000671, 0.011841, -0.016083,-0.016907, -0.024200, -0.252930,0.121735, 0.000305, 0.103821
21, 200000.000000,0.000854, 0.011383, -0.016083,-0.016907, -0.024200, -0.252930,0.121735, 0.000305, 0.108429
22, 210000.000000,0.000854, 0.011383, -0.014771,-0.016998, -0.022491, -0.257080,0.125305, -0.000641, 0.108429
23, 220000.000000,0.000366, 0.011871, -0.014771,-0.016998, -0.022491, -0.257080,0.125305, -0.000641, 0.108429
24, 230000.000000,0.000366, 0.011871, -0.014771,-0.016998, -0.022491, -0.257080,0.125305, -0.000641, 0.108429
25, 240000.000000,-0.000763, 0.012482, -0.014862,-0.016998, -0.022491, -0.257080,0.125305, -0.000641, 0.108124
26, 250000.000000,-0.000763, 0.012482, -0.014862,-0.015015, -0.023254, -0.252319,0.122498, 0.000458, 0.108124
27, 260000.000000,-0.000092, 0.012604, -0.014526,-0.015015, -0.023254, -0.252319,0.122498, 0.000458, 0.108124
28, 270000.000000,-0.000092, 0.012604, -0.014526,-0.015015, -0.023254, -0.252319,0.122498, 0.000458, 0.108124
29, 280000.000000,-0.000092, 0.012604, -0.014526,-0.015015, -0.023254, -0.252319,0.122498, 0.000458, 0.108124
30, 290000.000000,0.001007, 0.010864, -0.015747,-0.017090, -0.022614, -0.252045,0.121643, -0.001862, 0.108704
31, 300000.000000,0.001007, 0.010864, -0.015747,-0.017090, -0.022614, -0.252045,0.121643, -0.001862, 0.108704
32, 310000.000000,0.000275, 0.010773, -0.016602,-0.017090, -0.022614, -0.252045,0.121643, -0.001862, 0.108704
33, 320000.000000,0.000275, 0.010773, -0.016602,-0.017090, -0.022614, -0.252045,0.121643, -0.001862, 0.108704
34, 330000.000000,-0.000336, 0.011566, -0.016479,-0.017578, -0.022675, -0.255707,0.120972, 0.000031, 0.114532
35, 340000.000000,-0.000336, 0.011566, -0.016479,-0.017578, -0.022675, -0.255707,0.120972, 0.000031, 0.114532
36, 350000.000000,-0.000214, 0.010742, -0.015533,-0.017578, -0.022675, -0.255707,0.120972, 0.000031, 0.114532
37, 360000.000000,-0.000214, 0.010742, -0.015533,-0.017578, -0.022675, -0.255707,0.120972, 0.000031, 0.114532
38, 370000.000000,-0.000214, 0.010742, -0.015228,-0.017059, -0.023712, -0.253540,0.120758, -0.000336, 0.120697
39, 380000.000000,-0.000366, 0.010864, -0.015228,-0.017059, -0.023712, -0.253540,0.120758, -0.000336, 0.120697
40, 390000.000000,-0.000366, 0.010864, -0.015228,-0.017059, -0.023712, -0.253540,0.120758, -0.000336, 0.120697
41, 400000.000000,0.000122, 0.010864, -0.015045,-0.017059, -0.023712, -0.253540,0.120758, -0.000336, 0.120697
42, 410000.000000,0.000122, 0.010864, -0.015045,-0.017059, -0.015900, -0.257019,0.125763, -0.001373, 0.110291
43, 420000.000000,0.000793, 0.011841, -0.015594,-0.018799, -0.022980, -0.257019,0.125763, -0.001373, 0.110291
44, 430000.000000,0.000793, 0.011841, -0.015594,-0.018799, -0.022980, -0.257019,0.125763, -0.001373, 0.110291
45, 440000.000000,0.000793, 0.011841, -0.023407,-0.018799, -0.022980, -0.257019,0.125763, -0.001373, 0.110291
46, 450000.000000,0.000702, 0.012238, -0.016022,-0.018799, -0.022980, -0.257019,0.125763, -0.001373, 0.110291
47, 460000.000000,0.000702, 0.012238, -0.016022,-0.016144, -0.024048, -0.251465,0.124115, -0.000854, 0.107422
48, 470000.000000,0.001434, 0.011505, -0.015259,-0.016144, -0.024048, -0.251465,0.124115, -0.000854, 0.107422
49, 480000.000000,0.001434, 0.011505, -0.015259,-0.016144, -0.024048, -0.251465,0.124115, -0.000854, 0.107422
50, 490000.000000,0.000397, 0.010010, -0.014740,-0.016144, -0.024048, -0.251465,0.124115, -0.000854, 0.107422
51, 500000.000000,0.000397, 0.010010, -0.014740,-0.018005, -0.023468, -0.249603,0.120789, -0.002319, 0.107910
52, 510000.000000,-0.000153, 0.009857, -0.016052,-0.018005, -0.023468, -0.249603,0.120789, -0.002319, 0.107910
53, 520000.000000,-0.000153, 0.009857, -0.016052,-0.018005, -0.023468, -0.249603,0.120789, -0.002319, 0.107910
54, 530000.000000,-0.000153, 0.009857, -0.016052,-0.018005, -0.023468, -0.249603,0.120789, -0.002319, 0.107910
55, 540000.000000,0.000610, 0.011719, -0.016327,-0.016113, -0.023438, -0.249451,0.121460, -0.002716, 0.111755
56, 550000.000000,0.000610, 0.011719, -0.016327,-0.016113, -0.023438, -0.249451,0.121460, -0.002716, 0.111755
57, 560000.000000,0.000031, 0.011139, -0.014679,-0.016113, -0.023438, -0.249451,0.121460, -0.002716, 0.111755
58, 570000.000000,0.000031, 0.011139, -0.014679,-0.016113, -0.023438, -0.249451,0.121460, -0.002716, 0.111755
59, 580000.000000,0.000031, 0.011139, -0.015594,-0.016113, -0.023438, -0.249451,0.121460, 0.005096, 0.111664
60, 590000.000000,0.000000, 0.011536, -0.015594,-0.017487, -0.022430, -0.250885,0.117340, 0.000671, 0.111664
61, 600000.000000,0.000000, 0.011536, -0.016052,-0.017487, -0.022430, -0.250885,0.117340, 0.000671, 0.111664
62, 610000.000000,-0.000977, 0.011353, -0.015778,-0.017548, -0.023773, -0.252808,0.120361, -0.000549, 0.103088
63, 620000.000000,-0.000610, 0.011353, -0.015778,-0.017548, -0.023773, -0.252808,0.120361, -0.000549, 0.103088
64, 630000.000000,-0.000610, 0.011353, -0.015778,-0.017548, -0.023773, -0.252808,0.120361, -0.000549, 0.103088
65, 640000.000000,-0.000031, 0.011383, -0.015656,-0.017548, -0.023773, -0.252808,0.120361, -0.000549, 0.103088
66, 650000.000000,-0.000031, 0.011383, -0.015656,-0.017548, -0.023132, -0.255402,0.115234, -0.000458, 0.108124
67, 660000.000000,-0.000885, 0.012299, -0.016022,-0.017639, -0.023132, -0.255402,0.115234, -0.000458, 0.108124
68, 670000.000000,-0.000885, 0.012299, -0.016022,-0.017639, -0.023132, -0.255402,0.115234, -0.000458, 0.108124
69, 680000.000000,-0.000214, 0.011993, -0.015869,-0.017639, -0.023132, -0.255402,0.115234, -0.000458, 0.108124
70, 690000.000000,-0.000214, 0.011993, -0.015869,-0.015045, -0.024017, -0.255188,0.121674, -0.005066, 0.105560
71, 700000.000000,-0.000793, 0.011902, -0.016052,-0.015045, -0.024017, -0.255188,0.121674, -0.005066, 0.105560
72, 710000.000000,-0.000793, 0.011902, -0.016052,-0.015045, -0.024017, -0.255188,0.121674, -0.005066, 0.105560
73, 720000.000000,-0.000793, 0.011902, -0.016052,-0.015045, -0.024017, -0.255188,0.121674, -0.005066, 0.105560
74, 730000.000000,-0.001160, 0.011566, -0.015259,-0.015045, -0.024017, -0.255188,0.121674, -0.000061, 0.107239
75, 740000.000000,-0.001160, 0.011566, -0.015259,-0.019348, -0.024567, -0.254822,0.118713, -0.000061, 0.107239
76, 750000.000000,-0.000214, 0.010712, -0.015869,-0.019348, -0.024567, -0.254822,0.118713, -0.000061, 0.107239
77, 760000.000000,-0.000214, 0.010712, -0.015869,-0.019348, -0.024567, -0.254822,0.118713, -0.000061, 0.107239
78, 770000.000000,0.000397, 0.012817, -0.014832,-0.019348, -0.024567, -0.254822,0.118713, -0.001282, 0.112396
79, 780000.000000,0.000397, 0.012817, -0.014832,-0.018219, -0.023071, -0.257172,0.124512, -0.001282, 0.112396
80, 790000.000000,-0.000214, 0.012421, -0.015320,-0.018219, -0.023071, -0.257172,0.124512, -0.001282, 0.112396
81, 800000.000000,-0.000214, 0.012421, -0.015320,-0.018219, -0.023071, -0.257172,0.124512, -0.001282, 0.112396
82, 810000.000000,-0.000214, 0.012421, -0.015320,-0.018219, -0.023071, -0.257172,0.124512, -0.001282, 0.110718
83, 820000.000000,-0.000092, 0.010803, -0.015594,-0.016693, -0.023529, -0.254211,0.121582, 0.000916, 0.110718
84, 830000.000000,-0.000092, 0.010803, -0.015594,-0.016693, -0.023529, -0.254211,0.121582, 0.000916, 0.110718
85, 840000.000000,0.000977, 0.011261, -0.016724,-0.016693, -0.023529, -0.254211,0.121582, 0.000916, 0.110718
86, 850000.000000,0.000977, 0.011261, -0.016724,-0.016693, -0.023529, -0.254211,0.121582, 0.000916, 0.110718
87, 860000.000000,0.000092, 0.011963, -0.016632,-0.017426, -0.023438, -0.259674,0.116394, 0.000458, 0.109833
88, 870000.000000,0.000092, 0.011963, -0.016632,-0.017426, -0.023438, -0.259674,0.116394, 0.000458, 0.109833
89, 880000.000000,0.000092, 0.011963, -0.016693,-0.017426, -0.023438, -0.259674,0.116394, 0.000458, 0.109833
90, 890000.000000,0.001007, 0.011139, -0.016693,-0.017426, -0.023438, -0.259674,0.116394, 0.000458, 0.109833
91, 900000.000000,0.001007, 0.011139, -0.016693,-0.017426, -0.022675, -0.253632,0.119324, -0.000824, 0.119995
92, 910000.000000,-0.000671, 0.009857, -0.015900,-0.017853, -0.022675, -0.253632,0.119324, -0.000824, 0.119995
93, 920000.000000,-0.000671, 0.009857, -0.015900,-0.017853, -0.022675, -0.253632,0.119324, -0.000824, 0.119995
94, 930000.000000,0.000702, 0.010437, -0.015198,-0.017853, -0.022675, -0.253632,0.119324, -0.000824, 0.119995
95, 940000.000000,0.000702, 0.010437, -0.015198,-0.017853, -0.022675, -0.261444,0.120605, 0.000793, 0.108032
96, 950000.000000,0.000702, 0.010345, -0.015076,-0.017883, -0.022949, -0.260681,0.120605, 0.000793, 0.108032
97, 960000.000000,0.001343, 0.010345, -0.015076,-0.017883, -0.022949, -0.260681,0.120605, 0.000793, 0.108032
98, 970000.000000,0.001343, 0.010345, -0.015076,-0.017883, -0.022949, -0.260681,0.120605, 0.000793, 0.108032
99, 980000.000000,0.000671, 0.010773, -0.015656,-0.017883, -0.022949, -0.260681,0.120605, -0.000793, 0.109436
100, 990000.000000,0.000671, 0.010773, -0.015656,-0.015808, -0.023102, -0.252686,0.118011, -0.000793, 0.109436
101, 1000000.000000,0.000000, 0.010712, -0.015198,-0.015808, -0.023102, -0.252686,0.118011, -0.000793, 0.109436
102, 1010000.000000,0.000000, 0.010712, -0.015198,-0.015808, -0.023102, -0.252686,0.118011, -0.000793, 0.109436
103, 1020000.000000,-0.000732, 0.012054, -0.016022,-0.015808, -0.023102, -0.252686,0.118011, -0.000793, 0.110229
104, 1030000.000000,-0.000732, 0.012054, -0.016022,-0.015930, -0.024048, -0.254425,0.123840, 0.002167, 0.110229
105, 1040000.000000,0.000031, 0.012024, -0.015961,-0.015930, -0.024048, -0.254425,0.123840, 0.002167, 0.110229
106, 1050000.000000,0.000031, 0.012024, -0.015961,-0.015930, -0.024048, -0.254425,0.123840, 0.002167, 0.110229
107, 1060000.000000,0.000031, 0.012024, -0.016083,-0.015930, -0.024048, -0.254425,0.123840, 0.002167, 0.110229
108, 1070000.000000,0.000061, 0.012878, -0.016083,-0.017914, -0.024048, -0.257843,0.120544, 0.000671, 0.104797
109, 1080000.000000,0.000061, 0.012878, -0.016083,-0.017914, -0.024048, -0.257843,0.120544, 0.000671, 0.104797
110, 1090000.000000,-0.001038, 0.012238, -0.016418,-0.017914, -0.024048, -0.257843,0.120544, 0.000671, 0.104797
111, 1100000.000000,-0.001038, 0.012238, -0.016418,-0.017914, -0.024048, -0.257843,0.120544, 0.000671, 0.104797
112, 1110000.000000,-0.000061, 0.011658, -0.015564,-0.016693, -0.023651, -0.257324,0.119354, -0.002563, 0.112946
113, 1120000.000000,-0.000061, 0.011658, -0.015564,-0.016693, -0.023651, -0.257324,0.119354, -0.002563, 0.112946
114, 1130000.000000,-0.000061, 0.011658, -0.014984,-0.016693, -0.023651, -0.257324,0.119354, -0.002563, 0.112946
115, 1140000.000000,-0.001099, 0.010834, -0.014984,-0.016693, -0.023651, -0.257324,0.119354, -0.002563, 0.112946
116, 1150000.000000,-0.001099, 0.010834, -0.014984,-0.016693, -0.022888, -0.253693,0.125427, -0.000519, 0.112885
117, 1160000.000000,-0.000641, 0.012421, -0.015228,-0.016266, -0.022888, -0.253693,0.125427, -0.000519, 0.112885
118, 1170000.000000,-0.000641, 0.012421, -0.015228,-0.016266, -0.022888, -0.253693,0.125427, -0.000519, 0.112885
119, 1180000.000000,-0.000397, 0.010986, -0.015533,-0.016266, -0.022888, -0.253693,0.125427, -0.000519, 0.112885
120, 1190000.000000,-0.000397, 0.010986, -0.015533,-0.016266, -0.022888, -0.253693,0.125427, -0.000519, 0.112885
121, 1200000.000000,-0.000397, 0.010986, -0.015533,-0.015869, -0.023071, -0.252289,0.123596, -0.001343, 0.109863
122, 1210000.000000,0.000000, 0.011353, -0.015137,-0.015869, -0.023071, -0.252289,0.123596, -0.001343, 0.109863
123, 1220000.000000,0.000000, 0.011353, -0.015137,-0.015869, -0.023071, -0.252289,0.123596, -0.001343, 0.109863
124, 1230000.000000,-0.000092, 0.011627, -0.015717,-0.015869, -0.023071, -0.252289,0.123596, -0.001343, 0.109863
125, 1240000.000000,-0.000092, 0.011627, -0.015717,-0.015869, -0.023102, -0.257599,0.122742, -0.004150, 0.109131
126, 1250000.000000,-0.000092, 0.011627, -0.015717,-0.017914, -0.023102, -0.257599,0.122742, -0.004150, 0.109131
127, 1260000.000000,0.000977, 0.011505, -0.016510,-0.017914, -0.023102, -0.257599,0.122742, -0.004150, 0.109131
128, 1270000.000000,0.000977, 0.011505, -0.016510,-0.017914, -0.023102, -0.257599,0.122742, -0.004150, 0.109131
129, 1280000.000000,0.000366, 0.011414, -0.015045,-0.017914, -0.023102, -0.257599,0.122742, -0.004150, 0.109131
130, 1290000.000000,0.000366, 0.011414, -0.015045,-0.017944, -0.022980, -0.257141,0.123810, -0.000122, 0.102417
131, 1300000.000000,0.000366, 0.011414, -0.015045,-0.017944, -0.022980, -0.257141,0.123810, -0.000122, 0.102417
132, 1310000.000000,0.000885, 0.011444, -0.015320,-0.017944, -0.022980, -0.257141,0.123810, -0.000122, 0.102417
133, 1320000.000000,0.000885, 0.011444, -0.015320,-0.017944, -0.022980, -0.257141,0.123810, -0.000122, 0.102417
134, 1330000.000000,0.001251, 0.010834, -0.016418,-0.017944, -0.023163, -0.257904,0.120972, 0.000763, 0.106964
135, 1340000.000000,0.001251, 0.010834, -0.016418,-0.017426, -0.023163, -0.257904,0.120972, 0.000763, 0.106964
136, 1350000.000000,0.001251, 0.010834, -0.014862,-0.017426, -0.023163, -0.257904,0.120972, 0.000763, 0.106964
137, 1360000.000000,-0.000397, 0.010529, -0.014862,-0.017426, -0.023163, -0.257904,0.120972, 0.000763, 0.106964
138, 1370000.000000,-0.000397, 0.010529, -0.014862,-0.017426, -0.023163, -0.257904,0.120972, 0.000763, 0.106964
139, 1380000.000000,0.001038, 0.010406, -0.014587,-0.015961, -0.023560, -0.255127,0.122803, -0.001556, 0.110474
140, 1390000.000000,0.001038, 0.010406, -0.014587,-0.015961, -0.023560, -0.255127,0.122803, -0.001556, 0.110474
141, 1400000.000000,0.001038, 0.009888, -0.014679,-0.015961, -0.023560, -0.255127,0.122803, -0.001556, 0.110474
142, 1410000.000000,0.000244, 0.009888, -0.014679,-0.015961, -0.023560, -0.255127,0.122803, -0.001556, 0.110474
143, 1420000.000000,0.000244, 0.009888, -0.014679,-0.017334, -0.023560, -0.261139,0.120544, -0.000061, 0.110504
144, 1430000.000000,-0.000061, 0.007080, -0.015656,-0.017334, -0.023560, -0.261139,0.120544, -0.000061, 0.110504
145, 1440000.000000,-0.000061, 0.007080, -0.015656,-0.017334, -0.023560, -0.261139,0.120544, -0.000061, 0.110504
146, 1450000.000000,0.000244, 0.007233, -0.015961,-0.017334, -0.023560, -0.261139,0.120544, -0.000061, 0.110504
147, 1460000.000000,0.000244, 0.007233, -0.015961,-0.017334, -0.023560, -0.261139,0.120544, -0.000061, 0.110504
148, 1470000.000000,0.000244, 0.007233, -0.015961,-0.017120, -0.022705, -0.250183,0.124573, -0.000488, 0.111786
149, 1480000.000000,0.000122, 0.008362, -0.014832,-0.017120, -0.022705, -0.250183,0.124573, -0.000488, 0.111786
150, 1490000.000000,0.000122, 0.008362, -0.014832,-0.017120, -0.022705, -0.250183,0.124573, -0.000488, 0.111786
151, 1500000.000000,0.000549, 0.008148, -0.015747,-0.017120, -0.022705, -0.250183,0.124573, -0.000488, 0.111786
152, 1510000.000000,0.000549, 0.008148, -0.015747,-0.016937, -0.023468, -0.254852,0.120605, -0.000153, 0.104431
153, 1520000.000000,0.000549, 0.008148, -0.015747,-0.016937, -0.023468, -0.254852,0.120605, -0.000153, 0.104431
154, 1530000.000000,-0.000702, 0.007233, -0.015594,-0.016937, -0.023468, -0.254852,0.120605, -0.000153, 0.104431
155, 1540000.000000,-0.000702, 0.007233, -0.015594,-0.016937, -0.023468, -0.254852,0.120605, -0.000153, 0.104431
156, 1550000.000000,0.000763, 0.006378, -0.015350,-0.016937, -0.023468, -0.254852,0.120605, -0.000153, 0.104431
157, 1560000.000000,0.000763, 0.006378, -0.015350,-0.019104, -0.023804, -0.254547,0.118347, 0.000793, 0.105530
158, 1570000.000000,0.000763, 0.006378, -0.015045,-0.019104, -0.023804, -0.254547,0.118347, 0.000793, 0.105530
159, 1580000.000000,0.000336, 0.005615, -0.015045,-0.019104, -0.023804, -0.254547,0.118347, 0.000793, 0.105530
160, 1590000.000000,0.000336, 0.005615, -0.015045,-0.019104, -0.023804, -0.254547,0.118347, 0.000793, 0.105530
161, 1600000.000000,0.000641, 0.006042, -0.015411,-0.019104, -0.024567, -0.261078,0.126740, -0.001770, 0.106354
162, 1610000.000000,0.000641, 0.006042, -0.015411,-0.019684, -0.024567, -0.261078,0.126740, -0.001770, 0.106354
163, 1620000.000000,0.000641, 0.006042, -0.015808,-0.019684, -0.024567, -0.261078,0.126740, -0.001770, 0.106354
164, 1630000.000000,0.001221, 0.007050, -0.015808,-0.019684, -0.024567, -0.261078,0.126740, -0.001770, 0.106354
165, 1640000.000000,0.001221, 0.007050, -0.015808,-0.019684, -0.024567, -0.261078,0.126740, -0.001770, 0.106354
166, 1650000.000000,-0.000183, 0.007782, -0.015778,-0.017975, -0.023041, -0.247803,0.122253, 0.000336, 0.115570
167, 1660000.000000,-0.000183, 0.007782, -0.015778,-0.017975, -0.023041, -0.247803,0.122253, 0.000336, 0.115570
168, 1670000.000000,0.007629, 0.008667, -0.015411,-0.017975, -0.023041, -0.247803,0.122253, 0.000336, 0.115570
169, 1680000.000000,0.001251, 0.008667, -0.015411,-0.017975, -0.023041, -0.247803,0.122253, 0.000336, 0.115570
170, 1690000.000000,0.001251, 0.008667, -0.015411,-0.017975, -0.023804, -0.259399,0.118164, -0.000763, 0.115540
171, 1700000.000000,0.001007, 0.009583, -0.016388,-0.017395, -0.023804, -0.259399,0.118164, -0.000763, 0.115540
172, 1710000.000000,0.001007, 0.009583, -0.016388,-0.017395, -0.023804, -0.259399,0.118164, -0.000763, 0.115540
173, 1720000.000000,0.000000, 0.010559, -0.016235,-0.017395, -0.023804, -0.259399,0.118164, -0.000763, 0.115540
174, 1730000.000000,0.000000, 0.010559, -0.016235,-0.017395, -0.023804, -0.259399,0.118164, -0.000763, 0.115540
175, 1740000.000000,0.000000, 0.010559, -0.016235,-0.017975, -0.021820, -0.253357,0.121887, 0.000153, 0.103088
176, 1750000.000000,-0.000885, 0.010376, -0.015594,-0.017975, -0.021820, -0.253357,0.121887, 0.000153, 0.103088
177, 1760000.000000,-0.000885, 0.010376, -0.015594,-0.017975, -0.021820, -0.253357,0.121887, 0.000153, 0.103088
178, 1770000.000000,-0.000397, 0.010284, -0.015533,-0.017975, -0.021820, -0.253357,0.121887, 0.000153, 0.103088
179, 1780000.000000,-0.000397, 0.010284, -0.015533,-0.017975, -0.021820, -0.260345,0.125092, -0.000641, 0.116730
180, 1790000.000000,-0.000397, 0.010284, -0.015533,-0.018036, -0.024475, -0.260345,0.125092, -0.000641, 0.116730
181, 1800000.000000,0.000397, 0.010773, -0.016296,-0.018036, -0.024475, -0.260345,0.125092, -0.000641, 0.116730
182, 1810000.000000,0.000397, 0.010773, -0.016296,-0.018036, -0.024475, -0.260345,0.125092, -0.000641, 0.116730
183, 1820000.000000,0.000061, 0.010071, -0.015564,-0.018036, -0.024475, -0.260345,0.125092, -0.000641, 0.116730
184, 1830000.000000,0.000061, 0.010071, -0.015564,-0.017395, -0.024506, -0.259064,0.123657, 0.001068, 0.110474
185, 1840000.000000,0.000061, 0.010071, -0.015533,-0.017395, -0.024506, -0.259064,0.123657, 0.001068, 0.110474
186, 1850000.000000,-0.001831, 0.009888, -0.015533,-0.017395, -0.024506, -0.259064,0.123657, 0.001068, 0.110474
187, 1860000.000000,-0.001831, 0.010376, -0.015594,-0.017395, -0.024506, -0.259064,0.123657, 0.001068, 0.110474
188, 1870000.000000,-0.000977, 0.010376, -0.015594,-0.017212, -0.023438, -0.256042,0.123322, -0.000671, 0.111084
189, 1880000.000000,-0.000977, 0.010223, -0.016052,-0.017212, -0.023438, -0.256042,0.123322, -0.000671, 0.111084
190, 1890000.000000,-0.000183, 0.010223, -0.016052,-0.017212, -0.023438, -0.256042,0.123322, -0.000671, 0.111084
191, 1900000.000000,-0.000183, 0.010223, -0.016052,-0.017212, -0.023438, -0.256042,0.123322, -0.000671, 0.111084
192, 1910000.000000,0.000336, 0.011383, -0.015228,-0.018005, -0.022980, -0.251740,0.119385, -0.002258, 0.109772
193, 1920000.000000,0.000336, 0.011383, -0.015228,-0.018005, -0.022980, -0.251740,0.119385, -0.002258, 0.109772
194, 1930000.000000,-0.000824, 0.013031, -0.016418,-0.018005, -0.022980, -0.251740,0.119385, -0.002258, 0.109772
195, 1940000.000000,-0.000824, 0.013031, -0.016418,-0.018005, -0.022980, -0.251740,0.119385, -0.002258, 0.109772
196, 1950000.000000,-0.000824, 0.013031, -0.016418,-0.020813, -0.023346, -0.255951,0.118164, -0.001312, 0.107117
197, 1960000.000000,-0.000732, 0.010620, -0.015869,-0.020813, -0.023346, -0.255951,0.118164, -0.001312, 0.107117
198, 1970000.000000,-0.000732, 0.010620, -0.015869,-0.020813, -0.023346, -0.255951,0.118164, -0.001312, 0.107117
199, 1980000.000000,0.000763, 0.010406, -0.015778,-0.020813, -0.023346, -0.255951,0.118164, -0.001312, 0.107117
200, 1990000.000000,0.000763, 0.010406, -0.015778,-0.020813, -0.023346, -0.255951,0.118164, -0.001312, 0.107117
201, 2000000.000000,0.000763, 0.010406, -0.015778,-0.017548, -0.022644, -0.257507,0.117798, -0.001129, 0.115021
202, 2010000.000000,0.000519, 0.011536, -0.014984,-0.017548, -0.022644, -0.257507,0.117798, -0.001129, 0.115021
203, 2020000.000000,0.000519, 0.011536, -0.014984,-0.017548, -0.022644, -0.257507,0.117798, -0.001129, 0.115021
204, 2030000.000000,-0.000732, 0.012268, -0.015259,-0.017548, -0.022644, -0.257507,0.117798, -0.001129, 0.115021
205, 2040000.000000,-0.000732, 0.012268, -0.015259,-0.017548, -0.024231, -0.262787,0.119537, -0.000549, 0.104370
206, 2050000.000000,-0.000732, 0.012268, -0.015778,-0.017761, -0.024231, -0.262787,0.119537, -0.000549, 0.104370
207, 2060000.000000,-0.001617, 0.012421, -0.015778,-0.017761, -0.024231, -0.262787,0.119537, -0.000549, 0.104370
208, 2070000.000000,-0.001617, 0.012421, -0.015778,-0.017761, -0.024231, -0.262787,0.119537, -0.000549, 0.104370
209, 2080000.000000,-0.000305, 0.009949, -0.015320,-0.017761, -0.024231, -0.262787,0.119537, -0.000549, 0.104370
210, 2090000.000000,-0.000305, 0.009949, -0.015320,-0.017151, -0.024353, -0.249481,0.118439, -0.001434, 0.111450
211, 2100000.000000,-0.000305, 0.009949, -0.015533,-0.017151, -0.024353, -0.249481,0.118439, -0.001434, 0.111450
212, 2110000.000000,0.000031, 0.009430, -0.015533,-0.017151, -0.024353, -0.249481,0.118439, -0.001434, 0.111450
213, 2120000.000000,0.000031, 0.009430, -0.015533,-0.017151, -0.024353, -0.249481,0.118439, -0.001434, 0.111450
214, 2130000.000000,0.000519, 0.009125, -0.014862,-0.017151, -0.022919, -0.255219,0.123260, -0.002167, 0.112885
215, 2140000.000000,0.000519, 0.009125, -0.014862,-0.017456, -0.022919, -0.255219,0.123260, -0.002167, 0.112885
216, 2150000.000000,0.000580, 0.008789, -0.015472,-0.017456, -0.022919, -0.255219,0.123260, -0.002167, 0.112885
217, 2160000.000000,0.000580, 0.008789, -0.015472,-0.017456, -0.022919, -0.255219,0.123260, -0.002167, 0.112885
218, 2170000.000000,0.000580, 0.008789, -0.015472,-0.017456, -0.022919, -0.255219,0.123260, -0.002167, 0.112885
219, 2180000.000000,0.001373, 0.007629, -0.015625,-0.016449, -0.024170, -0.250702,0.125061, 0.001740, 0.109924
220, 2190000.000000,0.001373, 0.007629, -0.015625,-0.016449, -0.024170, -0.250702,0.125061, 0.001740, 0.109924
221, 2200000.000000,0.000702, 0.007385, -0.014984,-0.016449, -0.024170, -0.250702,0.125061, 0.001740, 0.109924
222, 2210000.000000,0.000702, 0.007385, -0.014984,-0.016449, -0.024170, -0.250702,0.125061, 0.001740, 0.109924
223, 2220000.000000,0.000946, 0.006714, -0.014465,-0.016785, -0.024719, -0.260712,0.116608, -0.000824, 0.111664
224, 2230000.000000,0.000946, 0.006714, -0.014465,-0.016785, -0.024719, -0.260712,0.116608, -0.000824, 0.111664
225, 2240000.000000,0.000946, 0.006714, -0.014465,-0.016785, -0.024719, -0.260712,0.116608, -0.000824, 0.111664
226, 2250000.000000,0.000946, 0.006622, -0.014679,-0.016785, -0.024719, -0.260712,0.116608, -0.000824, 0.111664
227, 2260000.000000,0.000946, 0.006622, -0.014679,-0.017365, -0.025482, -0.257385,0.116913, -0.007385, 0.113495
228, 2270000.000000,0.001648, 0.007294, -0.014374,-0.017365, -0.025482, -0.257385,0.116913, -0.007385, 0.113495
229, 2280000.000000,0.001648, 0.007294, -0.014374,-0.017365, -0.025482, -0.257385,0.116913, -0.007385, 0.113495
230, 2290000.000000,0.001984, 0.006531, -0.014679,-0.017365, -0.025482, -0.257385,0.116913, -0.007385, 0.113495
231, 2300000.000000,0.001984, 0.006531, -0.014679,-0.016235, -0.023712, -0.255737,0.121704, -0.000275, 0.108765
232, 2310000.000000,0.001923, 0.006683, -0.014160,-0.016235, -0.023712, -0.255737,0.121704, -0.000275, 0.108765
233, 2320000.000000,0.001923, 0.006683, -0.014160,-0.016235, -0.023712, -0.255737,0.121704, -0.000275, 0.108765
234, 2330000.000000,0.001923, 0.006165, -0.014862,-0.016235, -0.023712, -0.255737,0.121704, -0.000275, 0.108765
235, 2340000.000000,0.001068, 0.006165, -0.014862,-0.016235, -0.024506, -0.259552,0.118591, -0.001404, 0.114044
236, 2350000.000000,0.001068, 0.006165, -0.014862,-0.018127, -0.024506, -0.259552,0.118591, -0.001404, 0.114044
237, 2360000.000000,0.000671, 0.007965, -0.015472,-0.018127, -0.024506, -0.259552,0.118591, -0.001404, 0.114044
238, 2370000.000000,0.000671, 0.007965, -0.015472,-0.018127, -0.024506, -0.259552,0.118591, -0.001404, 0.114044
239, 2380000.000000,0.000427, 0.010071, -0.014496,-0.018127, -0.024506, -0.259552,0.118591, -0.001404, 0.114044
240, 2390000.000000,0.000427, 0.010071, -0.014496,-0.020630, -0.023743, -0.256744,0.122803, 0.000305, 0.108612
241, 2400000.000000,0.000427, 0.010071, -0.014496,-0.020630, -0.023743, -0.256744,0.122803, 0.000305, 0.108612
242, 2410000.000000,0.000061, 0.013611, -0.014954,-0.020630, -0.023743, -0.256744,0.122803, 0.000305, 0.108612
243, 2420000.000000,0.000061, 0.013611, -0.014954,-0.020630, -0.023743, -0.256744,0.122803, 0.000305, 0.108612
244, 2430000.000000,-0.000824, 0.014130, -0.014771,-0.020630, -0.022675, -0.261414,0.120392, -0.000549, 0.111755
245, 2440000.000000,-0.000824, 0.014130, -0.014771,-0.019867, -0.022675, -0.261414,0.120392, -0.000549, 0.111755
246, 2450000.000000,-0.000824, 0.014130, -0.014771,-0.019867, -0.022675, -0.261414,0.120392, -0.000549, 0.111755
247, 2460000.000000,-0.001099, 0.013184, -0.015625,-0.019867, -0.022675, -0.261414,0.120392, -0.000549, 0.111755
248, 2470000.000000,-0.001099, 0.013184, -0.015625,-0.019867, -0.022675, -0.257294,0.120300, 0.000031, 0.111603
249, 2480000.000000,0.001099, 0.013458, -0.015411,-0.020355, -0.022705, -0.257294,0.120300, 0.000031, 0.111603
250, 2490000.000000,0.001099, 0.013458, -0.015411,-0.020355, -0.022705, -0.257294,0.120300, 0.000031, 0.111603
251, 2500000.000000,-0.000793, 0.012268, -0.013428,-0.020355, -0.022705, -0.257294,0.120300, 0.000031, 0.111603
252, 2510000.000000,-0.000793, 0.012268, -0.013428,-0.017700, -0.023193, -0.252441,0.113556, -0.002014, 0.115448
253, 2520000.000000,-0.001038, 0.013184, -0.013489,-0.017700, -0.023193, -0.252441,0.113556, -0.002014, 0.115448
254, 2530000.000000,-0.001038, 0.013184, -0.013489,-0.017700, -0.023193, -0.252441,0.113556, -0.002014, 0.115448
255, 2540000.000000,-0.001923, 0.013824, -0.015015,-0.017700, -0.023193, -0.252441,0.113556, -0.002014, 0.115448
256, 2550000.000000,-0.001923, 0.013824, -0.015015,-0.017700, -0.031006, -0.254852,0.122833, 0.000732, 0.112000
257, 2560000.000000,-0.001923, 0.013824, -0.015472,-0.018768, -0.024384, -0.254852,0.122833, 0.000732, 0.112000
258, 2570000.000000,-0.000427, 0.015015, -0.015472,-0.018768, -0.024384, -0.254852,0.122833, 0.000732, 0.112000
259, 2580000.000000,-0.000427, 0.015015, -0.015472,-0.018768, -0.024384, -0.254852,0.122833, 0.000732, 0.112000
260, 2590000.000000,-0.000824, 0.017731, -0.015442,-0.018768, -0.024384, -0.254852,0.122833, 0.000732, 0.112000
261, 2600000.000000,-0.000824, 0.017731, -0.015442,-0.016388, -0.023346, -0.254883,0.119843, -0.000885, 0.113495
262, 2610000.000000,-0.000824, 0.017731, -0.015564,-0.016388, -0.023346, -0.254883,0.119843, -0.000885, 0.113495
263, 2620000.000000,-0.000549, 0.016327, -0.015564,-0.016388, -0.023346, -0.254883,0.119843, -0.000885, 0.113495
264, 2630000.000000,-0.000549, 0.016327, -0.015564,-0.016388, -0.023346, -0.254883,0.119843, -0.000885, 0.113495
265, 2640000.000000,-0.001038, 0.015686, -0.015442,-0.016388, -0.025269, -0.259308,0.120544, 0.000153, 0.107971
266, 2650000.000000,-0.001038, 0.015686, -0.015442,-0.016998, -0.025269, -0.259308,0.120544, 0.000153, 0.107971
267, 2660000.000000,-0.000519, 0.014496, -0.016724,-0.016998, -0.025269, -0.259308,0.120544, 0.000153, 0.107971
268, 2670000.000000,-0.000519, 0.014496, -0.015656,-0.016998, -0.025269, -0.259308,0.120544, 0.000153, 0.113373
269, 2680000.000000,-0.002136, 0.013885, -0.015656,-0.017792, -0.024353, -0.260956,0.119781, -0.001251, 0.113373
270, 2690000.000000,-0.002136, 0.013885, -0.015656,-0.017792, -0.024353, -0.260956,0.119781, -0.001251, 0.113373
271, 2700000.000000,-0.003052, 0.012512, -0.014282,-0.017792, -0.024353, -0.260956,0.119781, -0.001251, 0.113373
272, 2710000.000000,-0.003052, 0.012512, -0.015656,-0.017792, -0.023224, -0.259308,0.118713, 0.000336, 0.107330
273, 2720000.000000,-0.000702, 0.014038, -0.015656,-0.017212, -0.023224, -0.259308,0.118713, 0.000336, 0.107330
274, 2730000.000000,-0.000702, 0.014038, -0.015656,-0.017212, -0.023224, -0.259308,0.118713, 0.000336, 0.107330
275, 2740000.000000,-0.002686, 0.011627, -0.016205,-0.017212, -0.023224, -0.259308,0.118713, 0.000336, 0.107330
276, 2750000.000000,-0.002686, 0.011627, -0.016205,-0.017212, -0.023224, -0.259308,0.118713, 0.000000, 0.109192
277, 2760000.000000,-0.002502, 0.010284, -0.015503,-0.018768, -0.024323, -0.256134,0.121094, 0.000000, 0.109192
278, 2770000.000000,-0.002502, 0.010284, -0.015503,-0.018768, -0.024323, -0.256134,0.121094, 0.000000, 0.109192
279, 2780000.000000,-0.002502, 0.010284, -0.016174,-0.018768, -0.024323, -0.256134,0.121094, 0.000000, 0.109192
280, 2790000.000000,-0.003937, 0.009216, -0.016174,-0.018768, -0.024323, -0.256134,0.121094, 0.000000, 0.109192
281, 2800000.000000,-0.003937, 0.009216, -0.016174,-0.016357, -0.022644, -0.261017,0.117615, -0.000641, 0.111084
282, 2810000.000000,-0.004059, 0.010010, -0.016357,-0.016357, -0.022644, -0.261017,0.117615, -0.000641, 0.111084
283, 2820000.000000,-0.004059, 0.010010, -0.016357,-0.016357, -0.022644, -0.261017,0.117615, -0.000641, 0.111084
284, 2830000.000000,-0.004059, 0.010010, -0.016296,-0.016357, -0.022644, -0.261017,0.117615, -0.000641, 0.111084
285, 2840000.000000,-0.002594, 0.008942, -0.016296,-0.016357, -0.022644, -0.252625,0.123108, -0.002258, 0.120056
286, 2850000.000000,-0.002594, 0.008942, -0.016296,-0.021393, -0.021576, -0.252625,0.123108, -0.002258, 0.120056
287, 2860000.000000,-0.001465, 0.011932, -0.016479,-0.021393, -0.021576, -0.252625,0.123108, -0.002258, 0.120056
288, 2870000.000000,-0.001465, 0.011932, -0.016479,-0.021393, -0.021576, -0.252625,0.123108, -0.002258, 0.120056
289, 2880000.000000,-0.000488, 0.020325, -0.018982,-0.021393, -0.021576, -0.253265,0.122681, 0.001648, 0.103638
290, 2890000.000000,-0.000488, 0.020325, -0.018982,-0.024628, -0.023895, -0.253265,0.122681, 0.001648, 0.103638
291, 2900000.000000,0.000519, 0.030334, -0.022095,-0.024628, -0.023895, -0.253265,0.122681, 0.001648, 0.103638
292, 2910000.000000,0.000519, 0.030334, -0.022095,-0.024628, -0.023895, -0.253265,0.122681, 0.001648, 0.103638
293, 2920000.000000,-0.002014, 0.034241, -0.025879,-0.024628, -0.023895, -0.256073,0.117279, 0.000031, 0.109558
294, 2930000.000000,-0.002014, 0.034241, -0.025879,-0.019348, -0.024811, -0.256073,0.117279, 0.000031, 0.109558
295, 2940000.000000,-0.002014, 0.034241, -0.028534,-0.019348, -0.024811, -0.256073,0.117279, 0.000031, 0.109558
296, 2950000.000000,-0.003387, 0.036346, -0.028534,-0.019348, -0.024811, -0.256073,0.117279, 0.000031, 0.109558
297, 2960000.000000,-0.003387, 0.036346, -0.028534,-0.019348, -0.024811, -0.256073,0.117279, 0.000031, 0.109558
298, 2970000.000000,-0.005463, 0.055603, -0.038635,-0.074127, 0.009613, -0.192200,0.121826, 0.001099, 0.114532
299, 2980000.000000,-0.005463, 0.055603, -0.038635,-0.074127, 0.009613, -0.192200,0.121826, 0.001099, 0.114532
300, 2990000.000000,0.029236, 0.140594, -0.050323,-0.074127, 0.009613, -0.192200,0.121826, 0.001099, 0.114532
301, 3000000.000000,0.029236, 0.140594, -0.050323,-0.074127, 0.009613, -0.262512,0.120300, -0.002075, 0.108368
302, 3010000.000000,0.031158, 0.194763, -0.059509,-0.026123, -0.025818, -0.264282,0.120300, -0.002075, 0.108368
303, 3020000.000000,0.031158, 0.194763, -0.059509,-0.026123, -0.025818, -0.264282,0.120300, -0.002075, 0.108368
304, 3030000.000000,0.008179, 0.207245, -0.082123,-0.026123, -0.025818, -0.264282,0.120300, -0.002075, 0.108368
305, 3040000.000000,0.008179, 0.207245, -0.082123,-0.026123, -0.025818, -0.264282,0.120300, -0.002075, 0.123993
306, 3050000.000000,0.008179, 0.207245, -0.082123,-0.022308, 0.001770, -0.245300,0.127106, 0.001068, 0.117554
307, 3060000.000000,-0.001465, 0.234100, -0.112915,-0.022308, 0.001770, -0.245300,0.127106, 0.001068, 0.117554
308, 3070000.000000,-0.001465, 0.234100, -0.112915,-0.022308, 0.001770, -0.245300,0.127106, 0.001068, 0.117554
309, 3080000.000000,0.015289, 0.276489, -0.154907,-0.022308, 0.001770, -0.245300,0.127106, 0.001068, 0.117554
310, 3090000.000000,0.015289, 0.276489, -0.154907,-0.077362, -0.018677, -0.252441,0.129517, 0.000549, 0.107086
311, 3100000.000000,0.040039, 0.379120, -0.203369,-0.077362, -0.018677, -0.252441,0.129517, 0.000549, 0.107086
312, 3110000.000000,0.040039, 0.379120, -0.203369,-0.077362, -0.018677, -0.252441,0.129517, 0.000549, 0.107086
313, 3120000.000000,0.063934, 0.475372, -0.250916,-0.077362, -0.018677, -0.252441,0.129517, 0.000549, 0.111023
314, 3130000.000000,0.063934, 0.475372, -0.250916,-0.039520, -0.058746, -0.401978,0.137451, 0.000702, 0.111023
315, 3140000.000000,0.080658, 0.427399, -0.295410,-0.039520, -0.058746, -0.401978,0.137451, 0.000702, 0.111023
316, 3150000.000000,0.080658, 0.427399, -0.295410,-0.039520, -0.058746, -0.401978,0.137451, 0.000702, 0.111023
317, 3160000.000000,0.046600, 0.478424, -0.334717,-0.039520, -0.168121, -0.342621,0.149536, 0.002594, 0.103912
318, 3170000.000000,0.046600, 0.478424, -0.334717,-0.151154, -0.164825, -0.342621,0.149536, 0.002594, 0.103912
319, 3180000.000000,0.046600, 0.439362, -0.319183,-0.151154, -0.164825, -0.342621,0.149536, 0.002594, 0.103912
320, 3190000.000000,0.000397, 0.441589, -0.319183,-0.151154, -0.164825, -0.342621,0.149536, 0.002594, 0.103912
321, 3200000.000000,0.000397, 0.441589, -0.319183,-0.151154, -0.164825, -0.342621,0.149536, 0.002594, 0.109253
322, 3210000.000000,-0.036011, 0.251770, -0.250977,-0.158936, -0.219635, -0.489075,0.146667, 0.003937, 0.109253
323, 3220000.000000,-0.036011, 0.251770, -0.250977,-0.158936, -0.219635, -0.489075,0.146667, 0.003937, 0.109253
324, 3230000.000000,-0.036346, 0.071625, -0.191498,-0.158936, -0.219635, -0.489075,0.146667, 0.003937, 0.109253
325, 3240000.000000,-0.036346, 0.071625, -0.191498,-0.158936, -0.219635, -0.489075,0.146667, 0.003937, 0.109253
326, 3250000.000000,-0.036346, 0.071625, -0.191498,-0.187653, -0.161713, -0.192871,0.141266, 0.007172, 0.108246
327, 3260000.000000,0.002716, 0.016144, -0.153076,-0.187653, -0.161713, -0.192871,0.141266, 0.007172, 0.108246
328, 3270000.000000,0.002716, 0.016144, -0.153076,-0.187653, -0.161713, -0.192871,0.141266, 0.007172, 0.108246
329, 3280000.000000,0.055817, 0.009216, -0.119873,-0.187653, -0.161713, -0.192871,0.141266, 0.007172, 0.108246
330, 3290000.000000,0.055817, 0.009216, -0.119873,-0.171906, -0.154205, -0.224487,0.146729, 0.005829, 0.106140
331, 3300000.000000,0.113129, -0.003662, -0.079224,-0.171906, -0.154205, -0.224487,0.146729, 0.005829, 0.106140
332, 3310000.000000,0.113129, -0.003662, -0.079224,-0.171906, -0.154205, -0.224487,0.146729, 0.005829, 0.106140
333, 3320000.000000,0.113129, -0.003662, -0.024536,-0.171906, -0.154205, -0.224487,0.146729, 0.005829, 0.106140
334, 3330000.000000,0.144440, -0.040802, -0.026947,-0.171906, -0.154205, -0.224487,0.146729, 0.005829, 0.104034
335, 3340000.000000,0.144470, -0.082886, 0.027100,-0.160126, -0.144958, -0.253204,0.140015, 0.005127, 0.104034
336, 3350000.000000,0.144470, -0.082886, 0.027100,-0.160126, -0.144958, -0.253204,0.140015, 0.005127, 0.104034
337, 3360000.000000,0.144470, -0.082886, 0.027100,-0.160126, -0.144958, -0.253204,0.140015, 0.005127, 0.104034
338, 3370000.000000,0.138947, -0.114410, 0.078369,-0.160126, -0.144958, -0.233276,0.135651, 0.001923, 0.106171
339, 3380000.000000,0.138947, -0.114410, 0.078369,-0.133942, -0.099487, -0.233276,0.135651, 0.001923, 0.106171
340, 3390000.000000,0.135101, -0.142761, 0.120941,-0.133942, -0.099487, -0.233276,0.135651, 0.001923, 0.106171
341, 3400000.000000,0.135101, -0.142761, 0.120941,-0.133942, -0.099487, -0.233276,0.135651, 0.001923, 0.106171
342, 3410000.000000,0.136353, -0.156586, 0.148499,-0.133942, -0.060425, -0.239166,0.130310, 0.000305, 0.100037
343, 3420000.000000,0.136353, -0.156586, 0.148499,-0.116974, -0.057312, -0.239166,0.130310, 0.000305, 0.100037
344, 3430000.000000,0.135925, -0.169983, 0.166046,-0.116974, -0.057312, -0.239166,0.130310, 0.000305, 0.100037
345, 3440000.000000,0.135925, -0.169983, 0.166046,-0.116974, -0.057312, -0.239166,0.130310, 0.000305, 0.100037
346, 3450000.000000,0.135925, -0.169983, 0.173859,-0.116974, -0.057312, -0.262604,0.123047, -0.002472, 0.106415
347, 3460000.000000,0.129761, -0.191772, 0.179565,-0.098450, -0.046417, -0.260864,0.123047, -0.002472, 0.106415
348, 3470000.000000,0.129761, -0.191772, 0.179565,-0.098450, -0.046417, -0.260864,0.123047, -0.002472, 0.106415
349, 3480000.000000,0.118469, -0.216156, 0.190643,-0.098450, -0.046417, -0.260864,0.123047, -0.002472, 0.106415
350, 3490000.000000,0.118469, -0.239594, 0.199280,-0.082825, -0.034851, -0.268585,0.115662, -0.002441, 0.093811
351, 3500000.000000,0.103607, -0.238586, 0.199280,-0.081238, -0.034851, -0.268585,0.115662, -0.002441, 0.093811
352, 3510000.000000,0.103607, -0.238586, 0.203094,-0.081238, -0.034851, -0.268585,0.115662, -0.002441, 0.093811
353, 3520000.000000,0.087219, -0.255524, 0.203094,-0.081238, -0.034851, -0.268585,0.115662, -0.002441, 0.093811
354, 3530000.000000,0.087219, -0.255524, 0.203094,-0.070190, -0.018494, -0.258575,0.103912, -0.004333, 0.093750
355, 3540000.000000,0.073608, -0.265961, 0.200470,-0.070190, -0.018494, -0.258575,0.103912, -0.004333, 0.093750
356, 3550000.000000,0.073608, -0.265961, 0.200470,-0.070190, -0.018494, -0.258575,0.103912, -0.004333, 0.093750
357, 3560000.000000,0.064941, -0.272095, 0.191986,-0.070190, -0.018494, -0.258575,0.103912, -0.004333, 0.093750
358, 3570000.000000,0.064941, -0.272095, 0.191986,-0.057648, -0.004456, -0.246399,0.106567, -0.002899, 0.099243
359, 3580000.000000,0.064941, -0.272095, 0.180878,-0.057648, -0.004456, -0.246399,0.106567, -0.002899, 0.099243
360, 3590000.000000,0.059448, -0.270172, 0.180878,-0.057648, -0.004456, -0.246399,0.106567, -0.002899, 0.099243
361, 3600000.000000,0.059448, -0.270172, 0.180878,-0.057648, -0.004456, -0.246399,0.106567, -0.002899, 0.099243
362, 3610000.000000,0.060120, -0.258698, 0.166901,-0.057648, -0.004456, -0.246399,0.091736, -0.001770, 0.096466
363, 3620000.000000,0.060120, -0.258698, 0.166901,-0.043152, -0.016571, -0.281952,0.091736, -0.001770, 0.096466
364, 3630000.000000,0.064087, -0.250336, 0.151978,-0.043152, -0.016571, -0.281952,0.091736, -0.001770, 0.096466
365, 3640000.000000,0.064087, -0.250336, 0.151978,-0.043152, -0.016571, -0.281952,0.091736, -0.001770, 0.096466
366, 3650000.000000,0.054230, -0.266602, 0.149994,-0.043152, -0.054291, -0.324371,0.091492, -0.001617, 0.091187
367, 3660000.000000,0.054230, -0.266602, 0.149994,-0.018616, -0.054291, -0.324371,0.091492, -0.001617, 0.091187
368, 3670000.000000,0.021301, -0.289368, 0.155151,-0.018616, -0.054291, -0.324371,0.091492, -0.001617, 0.091187
369, 3680000.000000,0.021301, -0.289368, 0.155151,-0.018616, -0.054291, -0.324371,0.091492, -0.001617, 0.091187
370, 3690000.000000,-0.023895, -0.297852, 0.163055,-0.007111, -0.052490, -0.269653,0.072571, -0.002258, 0.096405
371, 3700000.000000,-0.023895, -0.297852, 0.163055,-0.007111, -0.052490, -0.269653,0.072571, -0.002258, 0.096405
372, 3710000.000000,-0.023895, -0.282227, 0.164642,-0.007111, -0.052490, -0.269653,0.072571, -0.002258, 0.096405
373, 3720000.000000,-0.065063, -0.285461, 0.164642,-0.007111, -0.052490, -0.269653,0.072571, -0.002258, 0.096405
374, 3730000.000000,-0.065063, -0.257904, 0.152130,0.003632, -0.024139, -0.262573,0.069641, -0.003143, 0.087189
375, 3740000.000000,-0.085083, -0.257904, 0.152130,0.003632, -0.024139, -0.262573,0.069641, -0.003143, 0.087189
376, 3750000.000000,-0.085083, -0.257904, 0.152130,0.003632, -0.024139, -0.262573,0.069641, -0.003143, 0.087189
377, 3760000.000000,-0.077179, -0.236145, 0.130707,0.003632, -0.024139, -0.262573,0.069641, -0.003143, 0.087189
378, 3770000.000000,-0.077179, -0.236145, 0.130707,0.003632, -0.031830, -0.295410,0.064819, 0.000092, 0.078857
379, 3780000.000000,-0.057220, -0.236786, 0.111633,0.021515, -0.031830, -0.295410,0.064819, 0.000092, 0.078857
380, 3790000.000000,-0.057220, -0.236786, 0.111633,0.021515, -0.031830, -0.295410,0.064819, 0.000092, 0.078857
381, 3800000.000000,-0.033356, -0.240295, 0.093536,0.021515, -0.031830, -0.295410,0.064819, 0.000092, 0.078857
382, 3810000.000000,-0.033356, -0.240295, 0.093536,0.035828, -0.036835, -0.302490,0.053772, 0.001434, 0.061951
383, 3820000.000000,-0.004059, -0.240417, 0.078217,0.035828, -0.036835, -0.302490,0.053772, 0.001434, 0.061951
384, 3830000.000000,-0.004059, -0.240417, 0.078217,0.035828, -0.036835, -0.302490,0.053772, 0.001434, 0.061951
385, 3840000.000000,-0.004059, -0.240417, 0.078217,0.035828, -0.036835, -0.302490,0.053772, 0.001434, 0.061951
386, 3850000.000000,0.023193, -0.242340, 0.066681,0.035828, -0.036835, -0.270203,0.060303, 0.004089, 0.061890
387, 3860000.000000,0.023193, -0.242340, 0.066681,0.052826, -0.033112, -0.270203,0.060303, 0.004089, 0.061890
388, 3870000.000000,0.044281, -0.236298, 0.058685,0.052826, -0.033112, -0.270203,0.060303, 0.004089, 0.061890
389, 3880000.000000,0.044281, -0.236298, 0.058685,0.052826, -0.033112, -0.270203,0.060303, 0.004089, 0.061890
390, 3890000.000000,0.057159, -0.219177, 0.053772,0.052826, -0.033112, -0.233887,0.064301, 0.004791, 0.049225
391, 3900000.000000,0.057159, -0.219177, 0.053772,0.066620, -0.033875, -0.233887,0.064301, 0.004791, 0.049225
392, 3910000.000000,0.056885, -0.193451, 0.054169,0.066620, -0.033875, -0.233887,0.064301, 0.004791, 0.049225
393, 3920000.000000,0.056885, -0.193451, 0.054169,0.066620, -0.033875, -0.233887,0.064301, 0.004791, 0.049225
394, 3930000.000000,0.042633, -0.164215, 0.057190,0.088745, -0.043213, -0.232971,0.066284, 0.006287, 0.044678
395, 3940000.000000,0.042633, -0.164215, 0.057190,0.088745, -0.043213, -0.232971,0.066284, 0.006287, 0.044678
396, 3950000.000000,0.010773, -0.139099, 0.064636,0.088745, -0.043213, -0.232971,0.066284, 0.006287, 0.044678
397, 3960000.000000,0.010773, -0.139099, 0.064636,0.088745, -0.043213, -0.232971,0.066284, 0.006287, 0.032532
398, 3970000.000000,-0.020477, -0.121094, 0.076904,0.124695, -0.049988, -0.266724,0.072479, 0.004761, 0.032532
399, 3980000.000000,-0.020477, -0.121094, 0.076904,0.124695, -0.049988, -0.266724,0.072479, 0.004761, 0.032532
400, 3990000.000000,-0.046509, -0.119568, 0.089111,0.124695, -0.049988, -0.266724,0.072479, 0.004761, 0.032532
401, 4000000.000000,-0.046509, -0.119568, 0.089111,0.124695, -0.049988, -0.266724,0.072479, 0.004761, 0.032532
402, 4010000.000000,-0.046509, -0.119568, 0.093872,0.158936, -0.040253, -0.300812,0.075378, 0.002991, 0.034271
403, 4020000.000000,-0.061707, -0.133575, 0.093872,0.158936, -0.040253, -0.300812,0.075378, 0.002991, 0.034271
404, 4030000.000000,-0.061707, -0.133575, 0.093872,0.158936, -0.040253, -0.300812,0.075378, 0.002991, 0.034271
405, 4040000.000000,-0.058868, -0.155029, 0.089355,0.158936, -0.040253, -0.300812,0.075378, 0.002991, 0.034271
406, 4050000.000000,-0.058868, -0.155029, 0.089355,0.166626, -0.020264, -0.189301,0.077972, 0.002899, 0.039825
407, 4060000.000000,-0.038727, -0.151642, 0.071899,0.166626, -0.020264, -0.189301,0.077972, 0.002899, 0.039825
408, 4070000.000000,-0.038727, -0.151642, 0.071899,0.166626, -0.020264, -0.189301,0.077972, 0.002899, 0.039825
409, 4080000.000000,-0.038727, -0.151642, 0.052582,0.166626, -0.020264, -0.189301,0.077972, 0.002899, 0.039825
410, 4090000.000000,-0.019958, -0.079712, 0.052582,0.166779, -0.022949, 0.093475,0.080902, 0.000031, 0.033966
411, 4100000.000000,-0.035675, 0.152649, 0.029358,0.166779, -0.022949, 0.093475,0.080902, 0.000031, 0.033966
412, 4110000.000000,-0.035675, 0.152649, 0.029358,0.166779, -0.022949, 0.093475,0.080902, 0.000031, 0.033966
413, 4120000.000000,-0.067017, 0.240936, 0.033508,0.166779, -0.022949, 0.093475,0.080902, 0.000031, 0.026154
414, 4130000.000000,-0.067017, 0.240936, 0.033508,0.225372, -0.061218, -0.128052,0.084564, 0.001801, 0.029114
415, 4140000.000000,-0.076111, 0.344360, 0.051971,0.225372, -0.061218, -0.128052,0.084564, 0.001801, 0.029114
416, 4150000.000000,-0.076111, 0.344360, 0.051971,0.225372, -0.061218, -0.128052,0.084564, 0.001801, 0.029114
417, 4160000.000000,-0.076111, 0.383423, 0.081268,0.225372, -0.061218, -0.128052,0.084564, -0.002167, 0.020142
418, 4170000.000000,-0.113037, 0.389557, 0.081268,0.119995, -0.029785, -0.111511,0.085541, -0.002167, 0.020142
419, 4180000.000000,-0.113037, 0.389557, 0.081268,0.119995, -0.029785, -0.111511,0.085541, -0.002167, 0.020142
420, 4190000.000000,-0.125854, 0.383972, 0.087494,0.119995, -0.029785, -0.111511,0.085541, -0.002167, 0.020142
421, 4200000.000000,-0.125854, 0.383972, 0.087494,0.119995, -0.029785, -0.111511,0.085541, -0.002167, 0.020142
422, 4210000.000000,-0.085144, 0.419922, 0.093964,-0.102325, -0.005341, -0.323364,0.085999, -0.002441, 0.014221
423, 4220000.000000,-0.085144, 0.419922, 0.093964,-0.102325, -0.005341, -0.323364,0.085999, -0.002441, 0.014221
424, 4230000.000000,-0.026337, 0.452698, 0.102570,-0.102325, -0.005341, -0.323364,0.085999, -0.002441, 0.014221
425, 4240000.000000,-0.026337, 0.452698, 0.102570,-0.102325, -0.005341, -0.323364,0.085999, -0.002441, 0.014221
426, 4250000.000000,-0.026337, 0.451111, 0.090759,0.002563, 0.027954, -0.240845,0.085358, -0.004059, 0.012604
427, 4260000.000000,0.016418, 0.451111, 0.090759,0.002563, 0.027954, -0.240845,0.085358, -0.004059, 0.012604
428, 4270000.000000,0.016418, 0.451111, 0.090759,0.002563, 0.027954, -0.240845,0.085358, -0.004059, 0.012604
429, 4280000.000000,-0.002808, 0.439941, 0.057709,0.002563, 0.027954, -0.240845,0.085358, -0.004059, 0.012604
430, 4290000.000000,-0.002808, 0.439941, 0.057709,-0.000549, 0.099823, -0.359009,0.082397, -0.005737, 0.008453
431, 4300000.000000,-0.055389, 0.420441, 0.008484,-0.000549, 0.099823, -0.359009,0.082397, -0.005737, 0.008453
432, 4310000.000000,-0.055389, 0.420441, -0.036316,-0.000549, 0.099823, -0.359009,0.082397, -0.005737, 0.008453
433, 4320000.000000,-0.030457, 0.432617, -0.036316,-0.000549, -0.259552, -0.788513,0.087128, -0.006653, 0.005615
434, 4330000.000000,-0.030457, 0.432617, -0.036316,0.168396, -0.265564, -0.788513,0.087128, -0.006653, 0.005615
435, 4340000.000000,-0.204346, 0.348267, 0.002655,0.168396, -0.265564, -0.788513,0.087128, -0.006653, 0.005615
436, 4350000.000000,-0.204346, 0.348267, 0.002655,0.168396, -0.265564, -0.788513,0.087128, -0.006653, 0.005615
437, 4360000.000000,-0.175201, 0.041382, 0.035889,0.168396, -0.000061, -0.390503,0.084595, -0.005005, 0.005432
438, 4370000.000000,-0.175201, 0.041382, 0.035889,-0.037262, -0.000061, -0.390503,0.084595, -0.005005, 0.005432
439, 4380000.000000,-0.119049, 0.121124, -0.000977,-0.037262, -0.000061, -0.390503,0.084595, -0.005005, 0.005432
440, 4390000.000000,-0.119049, 0.121124, -0.000977,-0.037262, -0.000061, -0.390503,0.084595, -0.005005, 0.005432
441, 4400000.000000,-0.033112, 0.038147, -0.014282,-0.037262, -0.000061, -0.390503,0.082733, -0.006531, 0.009735
442, 4410000.000000,-0.035065, 0.038147, -0.014282,-0.011078, -0.034271, -0.299927,0.082733, -0.006531, 0.009735
443, 4420000.000000,-0.035065, 0.038147, -0.014282,-0.011078, -0.034271, -0.299927,0.082733, -0.006531, 0.009735
444, 4430000.000000,-0.008392, 0.023956, -0.013428,-0.011078, -0.034271, -0.299927,0.082733, -0.006531, 0.009735
445, 4440000.000000,-0.008392, 0.023956, -0.013428,-0.011078, -0.034271, -0.299927,0.090546, -0.006348, 0.002930
446, 4450000.000000,-0.002014, 0.013214, -0.015228,-0.016266, -0.020691, -0.269409,0.087738, -0.006348, 0.002930
447, 4460000.000000,-0.002014, 0.013214, -0.015228,-0.016266, -0.020691, -0.269409,0.087738, -0.006348, 0.002930
448, 4470000.000000,0.003479, 0.007416, -0.016876,-0.016266, -0.020691, -0.269409,0.087738, -0.006348, 0.002930
449, 4480000.000000,0.003479, 0.007416, -0.016876,-0.016266, -0.020691, -0.269409,0.087738, -0.006348, 0.002930
450, 4490000.000000,0.003479, 0.002716, -0.017181,-0.017151, -0.029297, -0.263916,0.083191, -0.004089, 0.002594
451, 4500000.000000,-0.009399, -0.002960, -0.015533,-0.017151, -0.029297, -0.251801,0.082520, -0.007141, 0.002991
452, 4510000.000000,-0.017487, -0.004303, -0.012238,-0.022583, -0.028015, -0.251801,0.082520, -0.007141, 0.002991
453, 4520000.000000,-0.017487, -0.004303, -0.012238,-0.022583, -0.028015, -0.251801,0.082520, -0.007141, 0.002991
454, 4530000.000000,-0.017487, -0.004303, -0.007111,-0.022583, -0.028015, -0.251801,0.082520, -0.007141, 0.002991
455, 4540000.000000,-0.032532, -0.001862, -0.007111,-0.022583, -0.028015, -0.241486,0.082703, -0.005951, 0.001892
456, 4550000.000000,-0.032532, -0.001862, -0.007111,-0.029266, -0.024841, -0.241486,0.082703, -0.005951, 0.001892
457, 4560000.000000,-0.048920, 0.008820, -0.002747,-0.029266, -0.024841, -0.241486,0.082703, -0.005951, 0.001892
458, 4570000.000000,-0.048920, 0.008820, -0.002747,-0.029266, -0.024841, -0.241486,0.082703, -0.005951, 0.001892
459, 4580000.000000,-0.054413, 0.013885, -0.001923,-0.029266, -0.024841, -0.241486,0.082703, -0.005951, 0.001892
460, 4590000.000000,-0.054413, 0.013885, -0.001923,-0.023041, -0.020996, -0.257416,0.082336, -0.005676, 0.005280
461, 4600000.000000,-0.054413, 0.013885, -0.001923,-0.023041, -0.020996, -0.257416,0.082336, -0.005676, 0.005280
462, 4610000.000000,-0.052368, 0.017609, -0.002563,-0.023041, -0.020996, -0.257416,0.082336, -0.005676, 0.005280
463, 4620000.000000,-0.052368, 0.017609, -0.002563,-0.023041, -0.020996, -0.257416,0.082336, -0.005676, 0.005280
464, 4630000.000000,-0.049835, 0.018433, -0.001190,-0.021332, -0.018005, -0.258392,0.086517, -0.005402, 0.004974
465, 4640000.000000,-0.049835, 0.018433, -0.001190,-0.021332, -0.018005, -0.258392,0.086517, -0.005402, 0.004974
466, 4650000.000000,-0.049835, 0.018433, -0.000885,-0.021332, -0.018005, -0.258392,0.086517, -0.005402, 0.004974
467, 4660000.000000,-0.048706, 0.020050, -0.000885,-0.021332, -0.018005, -0.258392,0.086517, -0.005402, 0.004974
468, 4670000.000000,-0.048706, 0.027863, 0.001312,-0.029144, -0.017761, -0.249420,0.082458, -0.005219, 0.005463
469, 4680000.000000,-0.047333, 0.025787, 0.001312,-0.026459, -0.017761, -0.249420,0.082458, -0.005219, 0.005463
470, 4690000.000000,-0.047333, 0.025787, 0.001312,-0.026459, -0.017761, -0.249420,0.082458, -0.005219, 0.005463
471, 4700000.000000,-0.044037, 0.035034, 0.000153,-0.026459, -0.017761, -0.249420,0.082458, -0.005219, 0.005463
472, 4710000.000000,-0.035248, 0.044159, -0.001312,-0.022766, -0.020874, -0.259491,0.084106, -0.005432, 0.007172
473, 4720000.000000,-0.035248, 0.044159, -0.001312,-0.022766, -0.020874, -0.259491,0.084106, -0.005432, 0.007172
474, 4730000.000000,-0.027710, 0.045654, -0.005096,-0.022766, -0.020874, -0.259491,0.084106, -0.005432, 0.007172
475, 4740000.000000,-0.027710, 0.045654, -0.005096,-0.022766, -0.020874, -0.259491,0.085510, -0.008759, 0.002380
476, 4750000.000000,-0.019928, 0.043610, -0.006897,-0.015167, -0.018250, -0.265076,0.085510, -0.008759, 0.002380
477, 4760000.000000,-0.019928, 0.043610, -0.006897,-0.015167, -0.018250, -0.265076,0.085510, -0.008759, 0.002380
478, 4770000.000000,-0.019928, 0.043610, -0.006897,-0.015167, -0.018250, -0.265076,0.085510, -0.008759, 0.002380
479, 4780000.000000,-0.015533, 0.036285, -0.006439,-0.015167, -0.018250, -0.265076,0.085510, -0.006073, 0.007690
480, 4790000.000000,-0.015533, 0.036285, -0.006439,-0.019104, -0.018372, -0.255859,0.083466, -0.006073, 0.007690
481, 4800000.000000,-0.010010, 0.035126, -0.006042,-0.019104, -0.018372, -0.255859,0.083466, -0.006073, 0.007690
482, 4810000.000000,-0.010010, 0.035126, -0.006042,-0.019104, -0.018372, -0.255859,0.083466, -0.006073, 0.007690
483, 4820000.000000,-0.006470, 0.035278, -0.006165,-0.019104, -0.018372, -0.255859,0.083466, -0.006073, 0.007690
484, 4830000.000000,-0.006470, 0.035278, -0.006165,-0.023041, -0.019501, -0.255676,0.082733, -0.003845, 0.006134
485, 4840000.000000,-0.001373, 0.038605, -0.009888,-0.023041, -0.019501, -0.255676,0.082733, -0.003845, 0.006134
486, 4850000.000000,-0.001373, 0.038605, -0.009888,-0.023041, -0.019501, -0.255676,0.082733, -0.003845, 0.006134
487, 4860000.000000,-0.001373, 0.038605, -0.012054,-0.023041, -0.019501, -0.255676,0.082733, -0.003845, 0.006134
488, 4870000.000000,0.002747, 0.043823, -0.012054,-0.016327, -0.019897, -0.255249,0.087738, -0.005432, 0.003601
489, 4880000.000000,0.002747, 0.043823, -0.012054,-0.016327, -0.019897, -0.255249,0.087738, -0.005432, 0.003601
490, 4890000.000000,0.005798, 0.044556, -0.015137,-0.016327, -0.019897, -0.255249,0.087738, -0.005432, 0.003601
491, 4900000.000000,0.005798, 0.044556, -0.015137,-0.016327, -0.019897, -0.255249,0.079926, -0.008453, 0.005859
492, 4910000.000000,0.005798, 0.043610, -0.016785,-0.017822, -0.022156, -0.256927,0.081512, -0.008453, 0.005859
493, 4920000.000000,0.005798, 0.043610, -0.016785,-0.017822, -0.022156, -0.256927,0.081512, -0.008453, 0.005859
494, 4930000.000000,0.002991, 0.042664, -0.018646,-0.017822, -0.022156, -0.256927,0.081512, -0.008453, 0.005859
495, 4940000.000000,0.002991, 0.042664, -0.018646,-0.017822, -0.022156, -0.256927,0.081512, -0.008453, 0.008087
496, 4950000.000000,0.001617, 0.042114, -0.017944,-0.012207, -0.020569, -0.257629,0.083008, -0.008057, 0.008087
497, 4960000.000000,0.001617, 0.042114, -0.017944,-0.012207, -0.020569, -0.257629,0.083008, -0.008057, 0.008087
498, 4970000.000000,0.000458, 0.037201, -0.018433,-0.012207, -0.020569, -0.257629,0.083008, -0.008057, 0.008087
499, 4980000.000000,0.000458, 0.037201, -0.018433,-0.012207, -0.020569, -0.257141,0.085663, -0.005005, 0.001892
500, 4990000.000000,0.001129, 0.032837, -0.018188,-0.015106, -0.019958, -0.257141,0.085663, -0.005005, 0.001892
501, 5000000.000000,0.001129, 0.032837, -0.018188,-0.015106, -0.019958, -0.257141,0.085663, -0.005005, 0.001892
502, 5010000.000000,0.001129, 0.032837, -0.018188,-0.015106, -0.019958, -0.257141,0.085663, -0.005005, 0.001892
503, 5020000.000000,0.003326, 0.029602, -0.017792,-0.015106, -0.019958, -0.257141,0.085663, -0.005005, 0.007294
504, 5030000.000000,0.003326, 0.029602, -0.017792,-0.015350, -0.019531, -0.252899,0.079559, -0.006500, 0.007294
505, 5040000.000000,0.004028, 0.028992, -0.019257,-0.015350, -0.019531, -0.252899,0.079559, -0.006500, 0.007294
506, 5050000.000000,0.004028, 0.028992, -0.019257,-0.015350, -0.019531, -0.252899,0.079559, -0.006500, 0.007294
507, 5060000.000000,0.005219, 0.032806, -0.021729,-0.015350, -0.019531, -0.252899,0.079559, -0.006500, 0.007294
508, 5070000.000000,0.005219, 0.032806, -0.021729,-0.016937, -0.018524, -0.256897,0.084045, -0.005859, 0.000397
509, 5080000.000000,0.005219, 0.032806, -0.021729,-0.016937, -0.018524, -0.256897,0.084045, -0.005859, 0.000397
510, 5090000.000000,0.008240, 0.038086, -0.025391,-0.016937, -0.018524, -0.256897,0.084045, -0.005859, 0.000397
511, 5100000.000000,0.008240, 0.038086, -0.025391,-0.016937, -0.018524, -0.256897,0.084045, -0.005859, 0.000397
512, 5110000.000000,0.008850, 0.039459, -0.026245,-0.016937, -0.019592, -0.255280,0.084625, -0.006104, -0.000153
513, 5120000.000000,0.008850, 0.039459, -0.026245,-0.015991, -0.019592, -0.255280,0.084625, -0.006104, -0.000153
514, 5130000.000000,0.007660, 0.039703, -0.026001,-0.015991, -0.019592, -0.255280,0.084625, -0.006104, -0.000153
515, 5140000.000000,0.007660, 0.039703, -0.026001,-0.015991, -0.019592, -0.255280,0.084625, -0.006104, -0.000153
516, 5150000.000000,0.005646, 0.036987, -0.028229,-0.014923, -0.020782, -0.256592,0.079773, -0.005341, 0.005005
517, 5160000.000000,0.005646, 0.036987, -0.028229,-0.014923, -0.020782, -0.256592,0.079773, -0.005341, 0.005005
518, 5170000.000000,0.005646, 0.036987, -0.030945,-0.014923, -0.020782, -0.256592,0.079773, -0.005341, 0.005005
519, 5180000.000000,0.006042, 0.038879, -0.030945,-0.014923, -0.020782, -0.256592,0.079773, -0.005341, 0.005005
520, 5190000.000000,0.006042, 0.038879, -0.030945,-0.022736, -0.021332, -0.250519,0.084076, -0.005768, 0.001465
521, 5200000.000000,0.006470, 0.041779, -0.034943,-0.018585, -0.021332, -0.250519,0.084076, -0.005768, 0.001465
522, 5210000.000000,0.006470, 0.041779, -0.034943,-0.018585, -0.021332, -0.250519,0.084076, -0.005768, 0.001465
523, 5220000.000000,0.005676, 0.047241, -0.041962,-0.018585, -0.021332, -0.250519,0.084076, -0.005768, 0.001465
524, 5230000.000000,0.005676, 0.047241, -0.041962,-0.018585, -0.021332, -0.250519,0.084076, -0.005768, 0.001465
525, 5240000.000000,0.005676, 0.047241, -0.041962,-0.014648, -0.014801, -0.250732,0.087189, -0.005341, 0.004761
526, 5250000.000000,0.005737, 0.050079, -0.051453,-0.014648, -0.014801, -0.250732,0.087189, -0.005341, 0.004761
527, 5260000.000000,0.005737, 0.050079, -0.051453,-0.014648, -0.014801, -0.250732,0.087189, -0.005341, 0.004761
528, 5270000.000000,0.006683, 0.056183, -0.059509,-0.014648, -0.014801, -0.250732,0.087189, -0.005341, 0.004761
529, 5280000.000000,0.006683, 0.056183, -0.059509,-0.014648, -0.022614, -0.250702,0.084625, -0.006256, 0.000061
530, 5290000.000000,0.006683, 0.056183, -0.059509,-0.022614, -0.023315, -0.250702,0.084625, -0.006256, 0.000061
531, 5300000.000000,0.011993, 0.077667, -0.053558,-0.022614, -0.023315, -0.250702,0.084625, -0.006256, 0.000061
532, 5310000.000000,0.011993, 0.077667, -0.053558,-0.022614, -0.023315, -0.250702,0.084625, -0.006256, 0.000061
533, 5320000.000000,0.016022, 0.083435, -0.047211,-0.022614, -0.023315, -0.250702,0.084625, -0.006256, 0.000061
534, 5330000.000000,0.016022, 0.083435, -0.047211,-0.010864, -0.023834, -0.251740,0.085022, -0.005524, 0.000732
535, 5340000.000000,0.016022, 0.083435, -0.047211,-0.010864, -0.023834, -0.251740,0.085022, -0.005524, 0.000732
536, 5350000.000000,0.022095, 0.088318, -0.047394,-0.010864, -0.023834, -0.251740,0.085022, -0.005524, 0.000732
537, 5360000.000000,0.022095, 0.088318, -0.047394,-0.010864, -0.023834, -0.251740,0.085022, -0.005524, 0.000732
538, 5370000.000000,0.023438, 0.092560, -0.030365,-0.009918, -0.016907, -0.247559,0.082672, -0.005859, 0.002960
539, 5380000.000000,0.023438, 0.092560, -0.030365,-0.009918, -0.016907, -0.247559,0.082672, -0.005859, 0.002960
540, 5390000.000000,0.030853, 0.095825, -0.022552,-0.009918, -0.016907, -0.247559,0.082672, -0.005859, 0.002960
541, 5400000.000000,0.030853, 0.095825, -0.022552,-0.009918, -0.016907, -0.247559,0.082672, -0.005859, 0.002960
542, 5410000.000000,0.030853, 0.095825, -0.015167,-0.009918, -0.016907, -0.256256,0.087494, -0.006012, -0.001770
543, 5420000.000000,0.036682, 0.093842, -0.015167,-0.008270, -0.020020, -0.256256,0.087494, -0.006012, -0.001770
544, 5430000.000000,0.036682, 0.093842, -0.015167,-0.008270, -0.020020, -0.256256,0.087494, -0.006012, -0.001770
545, 5440000.000000,0.044830, 0.099640, -0.005798,-0.008270, -0.020020, -0.256256,0.087494, -0.006012, -0.001770
546, 5450000.000000,0.044830, 0.099640, -0.005798,-0.008270, -0.020020, -0.256256,0.087494, -0.006012, -0.001770
547, 5460000.000000,0.044830, 0.099640, -0.007172,0.007690, -0.034332, -0.258911,0.087463, -0.007568, -0.000458
548, 5470000.000000,0.047516, 0.087891, -0.007172,0.007690, -0.034332, -0.258911,0.087463, -0.007568, -0.000458
549, 5480000.000000,0.047516, 0.087891, -0.007172,0.007690, -0.034332, -0.258911,0.087463, -0.007568, -0.000458
550, 5490000.000000,0.033112, 0.066528, -0.013916,0.007690, -0.034332, -0.258911,0.087463, -0.007568, -0.000458
551, 5500000.000000,0.033112, 0.066528, -0.013916,0.007690, -0.034332, -0.258911,0.090546, -0.005035, -0.002716
552, 5510000.000000,0.040924, 0.063202, -0.026611,0.003601, -0.034515, -0.264160,0.090546, -0.005035, -0.002716
553, 5520000.000000,0.044678, 0.063202, -0.026611,0.003601, -0.034515, -0.264160,0.090546, -0.005035, -0.002716
554, 5530000.000000,0.044678, 0.063202, -0.026611,0.003601, -0.034515, -0.264160,0.090546, -0.005035, -0.002716
555, 5540000.000000,0.032410, 0.053864, -0.036499,0.003601, -0.034515, -0.264160,0.090546, -0.005035, -0.002716
556, 5550000.000000,0.032410, 0.053864, -0.036499,0.000122, -0.035309, -0.256592,0.086365, -0.004669, 0.000763
557, 5560000.000000,0.033722, 0.043030, -0.044342,0.000122, -0.035309, -0.256592,0.086365, -0.004669, 0.000763
558, 5570000.000000,0.033722, 0.043030, -0.044342,0.000122, -0.035309, -0.256592,0.086365, -0.004669, 0.000763
559, 5580000.000000,0.033722, 0.043030, -0.036530,0.000122, -0.035309, -0.256592,0.086365, -0.004669, 0.000763
560, 5590000.000000,0.028320, 0.051636, -0.031372,0.000122, -0.029755, -0.251190,0.087128, -0.006104, -0.005829
561, 5600000.000000,0.028320, 0.066254, -0.019470,-0.003998, -0.029755, -0.251190,0.087128, -0.006104, -0.005829
562, 5610000.000000,0.025879, 0.066254, -0.019470,-0.003998, -0.029755, -0.251190,0.087128, -0.006104, -0.005829
563, 5620000.000000,0.025879, 0.066254, -0.019470,-0.003998, -0.029755, -0.251190,0.087128, -0.006104, -0.005829
564, 5630000.000000,0.017334, 0.074066, -0.022522,-0.007812, -0.032349, -0.258392,0.083710, -0.006897, -0.002594
565, 5640000.000000,0.017334, 0.074066, -0.022522,-0.007812, -0.032349, -0.258392,0.083710, -0.006897, -0.002594
566, 5650000.000000,0.025238, 0.088043, -0.030243,-0.007812, -0.032349, -0.258392,0.083710, -0.006897, -0.002594
567, 5660000.000000,0.025238, 0.088043, -0.030243,-0.007812, -0.032349, -0.258392,0.083710, -0.006897, -0.002594
568, 5670000.000000,0.022156, 0.106567, -0.036987,-0.006683, -0.023376, -0.258179,0.082855, -0.006897, -0.003082
569, 5680000.000000,0.022156, 0.106567, -0.036987,-0.006683, -0.023376, -0.258179,0.082855, -0.006897, -0.003082
570, 5690000.000000,0.029968, 0.131958, -0.045441,-0.006683, -0.023376, -0.258179,0.082855, -0.006897, -0.003082
571, 5700000.000000,0.029999, 0.131958, -0.045441,-0.006683, -0.023376, -0.258179,0.082855, -0.006897, -0.003082
572, 5710000.000000,0.029999, 0.131958, -0.045441,-0.011688, -0.013367, -0.254944,0.090698, -0.004791, -0.000885
573, 5720000.000000,0.032959, 0.173370, -0.064209,-0.011688, -0.013367, -0.254944,0.090698, -0.004791, -0.000885
574, 5730000.000000,0.032959, 0.173370, -0.064209,-0.011688, -0.013367, -0.254944,0.090698, -0.004791, -0.000885
575, 5740000.000000,0.019928, 0.227386, -0.099518,-0.011688, -0.013367, -0.254944,0.090698, -0.004791, -0.000885
576, 5750000.000000,0.019928, 0.227386, -0.099518,-0.011688, -0.075867, -0.263733,0.093719, -0.004974, -0.008484
577, 5760000.000000,-0.010986, 0.216797, -0.165802,-0.018066, -0.070831, -0.263733,0.093719, -0.004974, -0.008484
578, 5770000.000000,-0.010986, 0.216797, -0.165802,-0.018066, -0.070831, -0.263733,0.093719, -0.004974, -0.008484
579, 5780000.000000,0.069336, 0.406067, -0.021820,-0.018066, -0.070831, -0.263733,0.093719, -0.004974, -0.008484
580, 5790000.000000,0.069336, 0.406067, -0.021820,-0.105713, -0.123840, -0.373138,0.095276, -0.006348, -0.005951
581, 5800000.000000,0.150085, 0.695526, -0.053680,-0.105713, -0.123840, -0.373138,0.095276, -0.006348, -0.005951
582, 5810000.000000,0.150085, 0.695526, -0.053680,-0.105713, -0.123840, -0.373138,0.095276, -0.006348, -0.005951
583, 5820000.000000,0.176208, 0.866852, -0.192078,-0.105713, -0.123840, -0.373138,0.095276, -0.006348, -0.005951
584, 5830000.000000,0.176208, 0.866852, -0.192078,-0.230072, 0.060852, -0.546295,0.101654, -0.006470, -0.013763
585, 5840000.000000,0.176208, 0.981293, -0.433472,-0.230072, 0.060852, -0.546295,0.101654, -0.006470, -0.013763
586, 5850000.000000,0.343719, 0.981293, -0.433472,-0.230072, 0.060852, -0.546295,0.101654, -0.006470, -0.013763
587, 5860000.000000,0.343719, 0.981293, -0.433472,-0.230072, 0.060852, -0.546295,0.101654, -0.006470, -0.013763
588, 5870000.000000,0.330780, 0.989258, -0.520538,-0.027802, -0.006592, -0.418732,0.107880, -0.005463, -0.022766
589, 5880000.000000,0.330780, 0.989258, -0.520538,-0.027802, -0.006592, -0.418732,0.107880, -0.005463, -0.022766
590, 5890000.000000,0.334167, 0.989258, -0.532684,-0.027802, -0.006592, -0.418732,0.107880, -0.005463, -0.022766
591, 5900000.000000,0.334167, 0.989258, -0.532684,-0.027802, -0.006592, -0.418732,0.107880, -0.005463, -0.022766
592, 5910000.000000,0.227448, 0.989258, -0.649353,-0.092896, -0.014496, -0.266602,0.113800, -0.003601, -0.042664
593, 5920000.000000,0.227448, 0.989258, -0.649353,-0.092896, -0.014496, -0.266602,0.113800, -0.003601, -0.042664
594, 5930000.000000,-0.003784, 0.989258, -0.782471,-0.092896, -0.014496, -0.266602,0.113800, -0.003601, -0.042664
595, 5940000.000000,-0.003784, 0.989258, -0.782471,-0.092896, -0.014496, -0.266602,0.113800, -0.003601, -0.042664
596, 5950000.000000,-0.003784, 0.989258, -0.699127,-0.305786, -0.047333, -0.086884,0.115814, -0.001465, -0.062134
597, 5960000.000000,-0.083313, 0.989258, -0.699127,-0.305786, -0.047333, -0.086884,0.115814, -0.001465, -0.062134
598, 5970000.000000,-0.083313, 0.989258, -0.699127,-0.305786, -0.047333, -0.086884,0.115814, -0.001465, -0.062134
599, 5980000.000000,0.138153, 0.985138, -0.686279,-0.305786, -0.047333, -0.086884,0.115814, -0.001465, -0.062134
600, 5990000.000000,0.138153, 0.985138, -0.686279,0.649353, -0.066315, -0.955933,0.123901, 0.003937, -0.080505
601, 6000000.000000,0.213379, 0.868256, -0.688202,0.649353, -0.066315, -0.955933,0.123901, 0.003937, -0.080505
602, 6010000.000000,0.213379, 0.868256, -0.688202,0.649353, -0.066315, -0.955933,0.123901, 0.003937, -0.080505
603, 6020000.000000,0.053528, 0.865540, -0.403595,0.649353, -0.066315, -0.955933,0.123901, 0.003937, -0.080505
604, 6030000.000000,0.053528, 0.865540, -0.403595,-0.149658, -0.322083, -0.917419,0.144501, 0.007507, -0.097992
605, 6040000.000000,0.028107, 0.213654, -0.407043,-0.149658, -0.322083, -0.917419,0.144501, 0.007507, -0.097992
606, 6050000.000000,0.028107, 0.213654, -0.407043,-0.149658, -0.322083, -0.917419,0.144501, 0.007507, -0.097992
607, 6060000.000000,0.015900, -0.288940, -0.264496,-0.149658, -0.322083, -0.917419,0.144501, 0.007507, -0.097992
608, 6070000.000000,0.015900, -0.288940, -0.264496,-0.134033, -0.237885, -0.438538,0.178711, 0.005554, -0.107452
609, 6080000.000000,0.008087, -0.499512, -0.151794,-0.134033, -0.237885, -0.438538,0.178711, 0.005554, -0.107452
610, 6090000.000000,0.013550, -0.499512, -0.151794,-0.134033, -0.237885, -0.438538,0.178711, 0.005554, -0.107452
611, 6100000.000000,0.013550, -0.499512, -0.151794,-0.134033, -0.237885, -0.438538,0.178711, 0.005554, -0.107452
612, 6110000.000000,-0.066711, -0.578979, -0.048859,-0.158447, -0.166504, -0.153931,0.224274, -0.003571, -0.101349
613, 6120000.000000,-0.066711, -0.578979, -0.048859,-0.158447, -0.166504, -0.153931,0.224274, -0.003571, -0.101349
614, 6130000.000000,-0.067444, -0.628754, -0.012390,-0.158447, -0.166504, -0.153931,0.224274, -0.003571, -0.101349
615, 6140000.000000,-0.067444, -0.628754, -0.012390,-0.158447, -0.166504, -0.153931,0.224274, -0.003571, -0.101349
616, 6150000.000000,0.042480, -0.653442, 0.026825,-0.158447, -0.064941, -0.192749,0.281891, -0.010651, -0.084076
617, 6160000.000000,0.042480, -0.653442, 0.026825,-0.074066, -0.066345, -0.192749,0.281891, -0.010651, -0.084076
618, 6170000.000000,0.042480, -0.700317, 0.048523,-0.074066, -0.066345, -0.192749,0.281891, -0.010651, -0.084076
619, 6180000.000000,0.105042, -0.702545, 0.048523,-0.074066, -0.066345, -0.192749,0.281891, -0.010651, -0.084076
620, 6190000.000000,0.105042, -0.702545, 0.065979,-0.028290, -0.033325, -0.299133,0.339172, -0.025360, -0.047913
621, 6200000.000000,0.154694, -0.785431, 0.065979,-0.028290, -0.033325, -0.299133,0.339172, -0.025360, -0.047913
622, 6210000.000000,0.154694, -0.785431, 0.065979,-0.028290, -0.033325, -0.299133,0.339172, -0.025360, -0.047913
623, 6220000.000000,0.183380, -0.886688, 0.080963,-0.028290, -0.033325, -0.299133,0.339172, -0.025360, -0.047913
624, 6230000.000000,0.183380, -0.886688, 0.080963,-0.028290, -0.033325, -0.299133,0.339172, -0.025360, -0.047913
625, 6240000.000000,0.183380, -0.972626, 0.094391,0.018097, -0.011993, -0.287384,0.402100, -0.044189, 0.018524
626, 6250000.000000,0.189972, -0.971191, 0.094391,0.018097, -0.011993, -0.287384,0.402100, -0.044189, 0.018524
627, 6260000.000000,0.182159, -0.999176, 0.106995,0.018097, -0.011993, -0.287384,0.402100, -0.044189, 0.018524
628, 6270000.000000,0.186890, -0.999176, 0.106995,0.018097, -0.011993, -0.287384,0.402100, -0.044189, 0.104462
629, 6280000.000000,0.186890, -0.999176, 0.106995,0.062103, -0.003998, -0.272491,0.443787, -0.074890, 0.106293
630, 6290000.000000,0.175873, -1.000000, 0.123474,0.062103, -0.003998, -0.272491,0.443787, -0.074890, 0.106293
631, 6300000.000000,0.175873, -1.000000, 0.123474,0.062103, -0.003998, -0.272491,0.443787, -0.074890, 0.106293
632, 6310000.000000,0.163330, -1.000000, 0.142303,0.062103, -0.003998, -0.272491,0.443787, -0.074890, 0.106293
633, 6320000.000000,0.163330, -1.000000, 0.142303,0.093567, 0.025452, -0.245514,0.455841, -0.109406, 0.230469
634, 6330000.000000,0.161163, -1.000000, 0.157867,0.093567, 0.025452, -0.245514,0.455841, -0.109406, 0.230469
635, 6340000.000000,0.161163, -1.000000, 0.157867,0.093567, 0.025452, -0.245514,0.455841, -0.109406, 0.230469
636, 6350000.000000,0.161163, -1.000000, 0.165558,0.093567, 0.025452, -0.245514,0.455841, -0.109406, 0.230469
637, 6360000.000000,0.176300, -1.000000, 0.165558,0.132355, 0.059174, -0.247253,0.428589, -0.152863, 0.344666
638, 6370000.000000,0.176300, -1.000000, 0.165558,0.132355, 0.059174, -0.247253,0.428589, -0.152863, 0.344666
639, 6380000.000000,0.191101, -1.000000, 0.166168,0.132355, 0.059174, -0.247253,0.428589, -0.152863, 0.344666
640, 6390000.000000,0.194672, -1.000000, 0.166748,0.165222, 0.053864, -0.330383,0.339691, -0.196411, 0.428528
641, 6400000.000000,0.194672, -1.000000, 0.166748,0.165222, 0.053864, -0.330383,0.339691, -0.196411, 0.428528
642, 6410000.000000,0.178284, -1.000000, 0.170624,0.165222, 0.053864, -0.330383,0.339691, -0.196411, 0.428528
643, 6420000.000000,0.178284, -1.000000, 0.170624,0.165222, 0.053864, -0.330383,0.339691, -0.196411, 0.428528
644, 6430000.000000,0.156311, -1.000000, 0.181915,0.205719, 0.051605, -0.396973,0.226410, -0.223999, 0.474701
645, 6440000.000000,0.156311, -1.000000, 0.181915,0.205719, 0.051605, -0.396973,0.226410, -0.223999, 0.474701
646, 6450000.000000,0.156311, -1.000000, 0.199066,0.205719, 0.051605, -0.396973,0.226410, -0.223999, 0.474701
647, 6460000.000000,0.137054, -1.000000, 0.199066,0.205719, 0.051605, -0.396973,0.226410, -0.223999, 0.474701
648, 6470000.000000,0.137054, -1.000000, 0.199066,0.263641, 0.010986, -0.366394,0.085327, -0.234436, 0.468903
649, 6480000.000000,0.110535, -1.000000, 0.222290,0.263641, 0.010986, -0.366394,0.085327, -0.234436, 0.468903
650, 6490000.000000,0.110535, -1.000000, 0.222290,0.263641, 0.010986, -0.366394,0.085327, -0.234436, 0.468903
651, 6500000.000000,0.083435, -0.998108, 0.273346,0.263641, 0.010986, -0.366394,0.085327, -0.234436, 0.468903
652, 6510000.000000,0.083435, -0.998108, 0.273346,0.299194, -0.054047, -0.327698,-0.052246, -0.218750, 0.411041
653, 6520000.000000,0.044830, -0.968689, 0.352081,0.299194, -0.054047, -0.327698,-0.052246, -0.218750, 0.411041
654, 6530000.000000,0.044830, -0.968689, 0.352081,0.299194, -0.054047, -0.327698,-0.052246, -0.218750, 0.411041
655, 6540000.000000,0.044830, -0.968689, 0.441711,0.299194, -0.054047, -0.327698,-0.052246, -0.218750, 0.411041
656, 6550000.000000,-0.008209, -0.907349, 0.441711,0.299194, -0.058105, -0.316772,-0.157227, -0.177826, 0.311188
657, 6560000.000000,-0.008209, -0.907349, 0.441711,0.332611, -0.058105, -0.316772,-0.157227, -0.177826, 0.311188
658, 6570000.000000,-0.071991, -0.836731, 0.521332,0.332611, -0.058105, -0.316772,-0.157227, -0.177826, 0.311188
659, 6580000.000000,-0.071991, -0.836731, 0.521332,0.332611, -0.058105, -0.316772,-0.157227, -0.177826, 0.311188
660, 6590000.000000,-0.147949, -0.765625, 0.576935,0.384613, 0.014465, -0.327667,-0.233368, -0.134827, 0.227051
661, 6600000.000000,-0.147949, -0.765625, 0.576935,0.384613, 0.014465, -0.327667,-0.233368, -0.134827, 0.227051
662, 6610000.000000,-0.195557, -0.696869, 0.587128,0.384613, 0.014465, -0.327667,-0.233368, -0.134827, 0.227051
663, 6620000.000000,-0.195557, -0.696869, 0.587128,0.384613, 0.014465, -0.327667,-0.233368, -0.134827, 0.227051
664, 6630000.000000,-0.225311, -0.633545, 0.537018,0.486176, 0.056854, -0.375366,-0.260895, -0.085602, 0.144958
665, 6640000.000000,-0.225311, -0.633545, 0.537018,0.488190, 0.056854, -0.375366,-0.260895, -0.085602, 0.144958
666, 6650000.000000,-0.233429, -0.582306, 0.444214,0.488190, 0.056854, -0.375366,-0.260895, -0.085602, 0.144958
667, 6660000.000000,-0.233429, -0.582306, 0.444214,0.488190, 0.056854, -0.375366,-0.260895, -0.085602, 0.144958
668, 6670000.000000,-0.233429, -0.582306, 0.342651,0.488190, 0.243439, 0.205963,-0.272308, -0.061279, 0.088593
669, 6680000.000000,-0.005127, -0.255829, 0.342834,0.506287, 0.243439, 0.205963,-0.272308, -0.061279, 0.088593
670, 6690000.000000,-0.005127, -0.255829, 0.342834,0.506287, 0.243439, 0.205963,-0.272308, -0.061279, 0.088593
671, 6700000.000000,0.126587, 0.124878, 0.054962,0.506287, 0.243439, 0.205963,-0.272308, -0.061279, 0.088593
672, 6710000.000000,0.126587, 0.124878, 0.054962,0.506287, 0.243439, 0.367920,-0.273224, -0.057526, 0.063751
673, 6720000.000000,0.052979, 0.217804, -0.084869,0.896729, -0.038666, 0.367920,-0.273224, -0.057526, 0.063751
674, 6730000.000000,0.052979, 0.217804, -0.084869,0.896729, -0.038666, 0.367920,-0.273224, -0.057526, 0.063751
675, 6740000.000000,0.107666, 0.538757, -0.184357,0.896729, -0.038666, 0.367920,-0.273224, -0.057526, 0.063751
676, 6750000.000000,0.104401, 0.538757, -0.184357,0.896729, -0.038666, 0.367920,-0.273224, -0.057526, 0.063751
677, 6760000.000000,0.104401, 0.538757, -0.184357,0.640900, -0.364929, -0.121613,-0.283173, -0.064575, 0.077728
678, 6770000.000000,0.159637, 0.606140, -0.185059,0.640900, -0.364929, -0.121613,-0.283173, -0.064575, 0.077728
679, 6780000.000000,0.159637, 0.606140, -0.185059,0.640900, -0.364929, -0.121613,-0.283173, -0.064575, 0.077728
680, 6790000.000000,0.100983, 0.501038, -0.124664,0.640900, -0.364929, -0.121613,-0.283173, -0.064575, 0.101166
681, 6800000.000000,-0.053528, 0.735138, -0.027466,-0.229675, -0.141876, -0.845337,-0.295074, -0.069427, 0.100616
682, 6810000.000000,-0.053528, 0.735138, -0.027466,-0.229675, -0.141876, -0.845337,-0.295074, -0.069427, 0.100616
683, 6820000.000000,-0.053528, 0.735138, -0.027466,-0.229675, -0.141876, -0.845337,-0.295074, -0.069427, 0.100616
684, 6830000.000000,-0.080780, 0.213165, -0.027374,-0.229675, -0.157501, -0.234222,-0.294495, -0.070587, 0.102661
685, 6840000.000000,-0.080780, 0.213165, -0.027374,-0.075928, -0.161469, -0.234222,-0.294495, -0.070587, 0.102661
686, 6850000.000000,-0.055573, 0.039764, -0.054626,-0.075928, -0.161469, -0.234222,-0.294495, -0.070587, 0.102661
687, 6860000.000000,-0.055573, 0.039764, -0.054626,-0.075928, -0.161469, -0.234222,-0.294495, -0.070587, 0.102661
688, 6870000.000000,0.014526, 0.060760, -0.028992,0.025726, -0.061310, -0.312256,-0.284973, -0.074951, 0.099121
689, 6880000.000000,0.014526, 0.060760, -0.028992,0.025726, -0.061310, -0.312256,-0.284973, -0.074951, 0.099121
690, 6890000.000000,0.033447, 0.006866, -0.021790,0.025726, -0.061310, -0.312256,-0.284973, -0.074951, 0.099121
691, 6900000.000000,0.033447, 0.006866, -0.021790,0.025726, -0.061310, -0.312256,-0.284973, -0.074951, 0.099121
692, 6910000.000000,0.024445, -0.015320, -0.023438,-0.015411, -0.033142, -0.262238,-0.294861, -0.072388, 0.101379
693, 6920000.000000,0.024445, -0.015320, -0.023438,-0.015411, -0.033142, -0.262238,-0.294861, -0.072388, 0.101379
694, 6930000.000000,0.024445, -0.015320, -0.022186,-0.015411, -0.033142, -0.262238,-0.294861, -0.072388, 0.101379
695, 6940000.000000,0.020416, -0.021515, -0.022186,-0.015411, -0.033142, -0.262238,-0.294861, -0.072388, 0.101379
696, 6950000.000000,0.020416, -0.021515, -0.022186,-0.015411, -0.018280, -0.259766,-0.290344, -0.072296, 0.096680
697, 6960000.000000,0.002167, -0.039398, -0.018219,-0.019501, -0.018280, -0.259766,-0.290344, -0.072296, 0.096680
698, 6970000.000000,0.002167, -0.039398, -0.018219,-0.019501, -0.018280, -0.259766,-0.290344, -0.072296, 0.096680
699, 6980000.000000,-0.009827, -0.046173, -0.008881,-0.019501, -0.018280, -0.259766,-0.290344, -0.072296, 0.096680
700, 6990000.000000,-0.009827, -0.046173, -0.008881,-0.019501, -0.018280, -0.259766,-0.290344, -0.072296, 0.097504
701, 7000000.000000,-0.009827, -0.045380, 0.006714,-0.037079, -0.029510, -0.229919,-0.291962, -0.071106, 0.097504
702, 7010000.000000,-0.045197, -0.045380, 0.006714,-0.037079, -0.029510, -0.229919,-0.291962, -0.071106, 0.097504
703, 7020000.000000,-0.075806, -0.034576, 0.022308,-0.037079, -0.029510, -0.229919,-0.291962, -0.071106, 0.097504
704, 7030000.000000,-0.075806, -0.034576, 0.022308,-0.052582, -0.019318, -0.223236,-0.295349, -0.068878, 0.096619
705, 7040000.000000,-0.093567, -0.007141, 0.024353,-0.052582, -0.019318, -0.223236,-0.295349, -0.068878, 0.096619
706, 7050000.000000,-0.093567, -0.007141, 0.024353,-0.052582, -0.019318, -0.223236,-0.295349, -0.068878, 0.096619
707, 7060000.000000,-0.093567, -0.007141, 0.015106,-0.052582, -0.019318, -0.223236,-0.295349, -0.068878, 0.096619
708, 7070000.000000,-0.090424, 0.026642, 0.015106,-0.036987, -0.039459, -0.227478,-0.294037, -0.065704, 0.103424
709, 7080000.000000,-0.090424, 0.026642, 0.015106,-0.036987, -0.039459, -0.227478,-0.294037, -0.065704, 0.103424
710, 7090000.000000,-0.104401, 0.048553, 0.006012,-0.036987, -0.039459, -0.227478,-0.294037, -0.065704, 0.103424
711, 7100000.000000,-0.104401, 0.048553, 0.006012,-0.036987, -0.039459, -0.227478,-0.294037, -0.065704, 0.103424
712, 7110000.000000,-0.113281, 0.101837, -0.008270,-0.036987, 0.000122, -0.258057,-0.293915, -0.063171, 0.105621
713, 7120000.000000,-0.113281, 0.101837, -0.008270,-0.030945, 0.000122, -0.258057,-0.293915, -0.063171, 0.105621
714, 7130000.000000,-0.087402, 0.129730, -0.012451,-0.030945, 0.000122, -0.258057,-0.293915, -0.063171, 0.105621
715, 7140000.000000,-0.087402, 0.129730, -0.012451,-0.030945, 0.000122, -0.258057,-0.293915, -0.063171, 0.105621
716, 7150000.000000,-0.087402, 0.129730, -0.021027,-0.030945, 0.000122, -0.250244,-0.292755, -0.065918, 0.104248
717, 7160000.000000,-0.047882, 0.158813, -0.021027,-0.023010, 0.011200, -0.256592,-0.292755, -0.065918, 0.104248
718, 7170000.000000,-0.047882, 0.158813, -0.021027,-0.023010, 0.011200, -0.256592,-0.292755, -0.065918, 0.104248
719, 7180000.000000,0.007660, 0.171204, -0.023773,-0.023010, 0.011200, -0.256592,-0.292755, -0.065918, 0.104248
720, 7190000.000000,0.007660, 0.171204, -0.023773,-0.023010, 0.011200, -0.256592,-0.292755, -0.065918, 0.119690
721, 7200000.000000,0.047791, 0.139313, -0.025787,-0.023346, -0.008545, -0.252502,-0.290741, -0.065918, 0.119690
722, 7210000.000000,0.047791, 0.139313, -0.025787,-0.023346, -0.008545, -0.252502,-0.290741, -0.065918, 0.119690
723, 7220000.000000,0.071808, 0.136475, -0.028503,-0.023346, -0.008545, -0.252502,-0.290741, -0.065918, 0.119690
724, 7230000.000000,0.071808, 0.136475, -0.028503,-0.023346, -0.008545, -0.252502,-0.290741, -0.065918, 0.115417
725, 7240000.000000,0.074432, 0.126373, -0.028564,0.007263, -0.055054, -0.288879,-0.294647, -0.070282, 0.115417
726, 7250000.000000,0.074432, 0.126373, -0.028564,0.007263, -0.055054, -0.288879,-0.294647, -0.070282, 0.115417
727, 7260000.000000,0.055359, 0.088898, -0.025604,0.007263, -0.055054, -0.288879,-0.294647, -0.070282, 0.115417
728, 7270000.000000,0.055359, 0.088898, -0.025604,0.007263, -0.055054, -0.265717,-0.293213, -0.068970, 0.121765
729, 7280000.000000,0.055359, 0.088898, -0.025604,-0.002899, -0.028015, -0.265717,-0.293213, -0.068970, 0.121765
730, 7290000.000000,0.055359, 0.070801, -0.030426,-0.002899, -0.028015, -0.265717,-0.293213, -0.068970, 0.121765
731, 7300000.000000,0.055359, 0.070801, -0.030426,-0.002899, -0.028015, -0.265717,-0.293213, -0.068970, 0.121765
732, 7310000.000000,0.070984, 0.068878, -0.065125,-0.002899, -0.028015, -0.265717,-0.293213, -0.068970, 0.121765
733, 7320000.000000,0.070984, 0.068878, -0.065125,-0.016602, -0.033417, -0.258240,-0.288300, -0.070953, 0.123749
734, 7330000.000000,0.070984, 0.071655, -0.029541,-0.016602, -0.033417, -0.258240,-0.288300, -0.070953, 0.123749
735, 7340000.000000,0.044647, 0.071655, -0.029541,-0.016602, -0.033417, -0.258240,-0.288300, -0.070953, 0.123749
736, 7350000.000000,0.044647, 0.071655, -0.029541,-0.016602, -0.033417, -0.258240,-0.288300, -0.070953, 0.123749
737, 7360000.000000,0.043579, 0.089905, -0.051239,-0.020874, -0.030975, -0.248352,-0.287750, -0.073700, 0.120270
738, 7370000.000000,0.043579, 0.089905, -0.051239,-0.020874, -0.030975, -0.248352,-0.287750, -0.073700, 0.120270
739, 7380000.000000,0.041138, 0.112213, -0.057007,-0.020874, -0.030975, -0.248352,-0.287750, -0.073700, 0.120270
740, 7390000.000000,0.041138, 0.112213, -0.057007,-0.020874, -0.030975, -0.248352,-0.287750, -0.073700, 0.120270
741, 7400000.000000,0.041138, 0.112213, -0.057007,-0.020874, -0.030975, -0.248352,-0.287750, -0.073700, 0.128082
742, 7410000.000000,0.033386, 0.112549, -0.062256,0.006775, -0.031464, -0.276581,-0.289246, -0.076233, 0.125763
743, 7420000.000000,0.033386, 0.112549, -0.062256,0.006775, -0.031464, -0.276581,-0.289246, -0.076233, 0.125763
744, 7430000.000000,0.031921, 0.087463, -0.063049,0.006775, -0.031464, -0.276581,-0.289246, -0.076233, 0.125763
745, 7440000.000000,0.031921, 0.087463, -0.063049,0.006775, -0.031464, -0.276581,-0.289246, -0.076233, 0.125763
746, 7450000.000000,0.031921, 0.087463, -0.059875,-0.004120, -0.027039, -0.257477,-0.289185, -0.078979, 0.125549
747, 7460000.000000,0.022034, 0.066223, -0.059875,-0.004120, -0.027039, -0.257477,-0.289185, -0.078979, 0.125549
748, 7470000.000000,0.022034, 0.066223, -0.059875,-0.004120, -0.027039, -0.257477,-0.289185, -0.078979, 0.125549
749, 7480000.000000,0.030457, 0.068451, -0.058960,-0.004120, -0.027039, -0.257477,-0.289185, -0.078979, 0.125549
750, 7490000.000000,0.030457, 0.068451, -0.058960,-0.004120, -0.027039, -0.257477,-0.289185, -0.078979, 0.132050
751, 7500000.000000,0.030457, 0.068451, -0.043823,0.001007, -0.027222, -0.261658,-0.289948, -0.079498, 0.132050
752, 7510000.000000,0.019196, 0.065643, -0.043823,0.001007, -0.027222, -0.261658,-0.289948, -0.079498, 0.132050
753, 7520000.000000,0.019196, 0.065643, -0.043823,0.001007, -0.027222, -0.261658,-0.289948, -0.079498, 0.132050
754, 7530000.000000,0.028351, 0.067993, -0.043121,0.001007, -0.027222, -0.261658,-0.289948, -0.079498, 0.132050
755, 7540000.000000,0.028351, 0.067993, -0.043121,0.000580, -0.033020, -0.257751,-0.285767, -0.081665, 0.124237
756, 7550000.000000,0.020538, 0.067413, -0.037872,0.000580, -0.033020, -0.257751,-0.285767, -0.081665, 0.124237
757, 7560000.000000,0.020599, 0.067413, -0.037872,0.000580, -0.033020, -0.257751,-0.285767, -0.081665, 0.124237
758, 7570000.000000,0.020599, 0.067413, -0.037872,0.000580, -0.033020, -0.257751,-0.285767, -0.081665, 0.124237
759, 7580000.000000,0.027374, 0.069397, -0.040039,0.000580, -0.033020, -0.257751,-0.285767, -0.081665, 0.129517
760, 7590000.000000,0.027374, 0.069397, -0.040039,0.001343, -0.036316, -0.255615,-0.284821, -0.083130, 0.129517
761, 7600000.000000,0.021851, 0.067047, -0.039368,0.001343, -0.036316, -0.255615,-0.284821, -0.083130, 0.129517
762, 7610000.000000,0.021851, 0.067047, -0.039368,0.001343, -0.036316, -0.255615,-0.284821, -0.083130, 0.129517
763, 7620000.000000,0.021851, 0.067047, -0.039368,0.001343, -0.036316, -0.255615,-0.284821, -0.083130, 0.129517
764, 7630000.000000,0.024902, 0.066437, -0.041321,0.002533, -0.033356, -0.251801,-0.281952, -0.082336, 0.129517
765, 7640000.000000,0.024902, 0.066437, -0.041321,0.002533, -0.033356, -0.251801,-0.281952, -0.082336, 0.129517
766, 7650000.000000,0.023376, 0.063507, -0.040710,0.002533, -0.033356, -0.251801,-0.281952, -0.082336, 0.129517
767, 7660000.000000,0.023376, 0.063507, -0.040710,0.002533, -0.033356, -0.251801,-0.281952, -0.082336, 0.129517
768, 7670000.000000,0.023376, 0.063507, -0.037109,0.002533, -0.033356, -0.251801,-0.281952, -0.084381, 0.134033
769, 7680000.000000,0.025421, 0.060699, -0.037109,0.003571, -0.033813, -0.257874,-0.279663, -0.084381, 0.134033
770, 7690000.000000,0.025421, 0.060699, -0.037109,0.003571, -0.033813, -0.257874,-0.279663, -0.084381, 0.134033
771, 7700000.000000,0.022736, 0.055542, -0.032135,0.003571, -0.033813, -0.257874,-0.279663, -0.084381, 0.134033
772, 7710000.000000,0.022736, 0.055542, -0.032135,0.003571, -0.033813, -0.257874,-0.279663, -0.084381, 0.134033
773, 7720000.000000,0.021271, 0.049316, -0.026947,0.011841, -0.036560, -0.262634,-0.283081, -0.085876, 0.136719
774, 7730000.000000,0.021271, 0.049316, -0.026947,0.011841, -0.036560, -0.262634,-0.283081, -0.085876, 0.136719
775, 7740000.000000,0.021271, 0.049316, -0.019135,0.011841, -0.036560, -0.262634,-0.283081, -0.085876, 0.136719
776, 7750000.000000,0.015106, 0.041595, -0.020538,0.011841, -0.036560, -0.262634,-0.283081, -0.085876, 0.136719
777, 7760000.000000,0.015106, 0.041595, -0.020538,0.007477, -0.036163, -0.248444,-0.284607, -0.084839, 0.132935
778, 7770000.000000,0.017761, 0.040009, -0.020599,0.007477, -0.036163, -0.248444,-0.284607, -0.084839, 0.132935
779, 7780000.000000,0.017761, 0.040009, -0.020599,0.007477, -0.036163, -0.248444,-0.284607, -0.084839, 0.132935
780, 7790000.000000,0.011841, 0.033447, -0.019989,0.007477, -0.036163, -0.248444,-0.284607, -0.084839, 0.132935
781, 7800000.000000,0.011841, 0.033447, -0.019989,0.015289, -0.038605, -0.251282,-0.279449, -0.085693, 0.131653
782, 7810000.000000,0.008850, 0.028442, -0.020782,0.008087, -0.038605, -0.251282,-0.279449, -0.085693, 0.131653
783, 7820000.000000,0.008850, 0.028442, -0.020782,0.008087, -0.038605, -0.251282,-0.279449, -0.085693, 0.131653
784, 7830000.000000,0.008850, 0.028442, -0.020782,0.008087, -0.038605, -0.251282,-0.279449, -0.085693, 0.131653
785, 7840000.000000,0.006042, 0.020447, -0.020020,0.008087, -0.038605, -0.251282,-0.279449, -0.086426, 0.137939
786, 7850000.000000,0.006042, 0.020447, -0.020020,0.010559, -0.036957, -0.253662,-0.282837, -0.086426, 0.137939
787, 7860000.000000,0.003387, 0.013611, -0.017761,0.010559, -0.036957, -0.253662,-0.282837, -0.086426, 0.137939
788, 7870000.000000,0.003387, 0.013611, -0.017761,0.010559, -0.036957, -0.253662,-0.282837, -0.086426, 0.137939
789, 7880000.000000,0.007019, 0.016296, -0.017548,0.010559, -0.036957, -0.253662,-0.282837, -0.086121, 0.135925
790, 7890000.000000,0.007019, 0.016296, -0.017548,0.006622, -0.036041, -0.251312,-0.279541, -0.086121, 0.135925
791, 7900000.000000,0.005157, 0.016876, -0.013947,0.006622, -0.036041, -0.251312,-0.279541, -0.086121, 0.135925
792, 7910000.000000,0.005157, 0.016876, -0.013947,0.006622, -0.036041, -0.251312,-0.279541, -0.086121, 0.135925
793, 7920000.000000,0.005157, 0.016876, -0.013947,0.006622, -0.036041, -0.251312,-0.279541, -0.086121, 0.135925
794, 7930000.000000,0.001495, 0.015106, -0.005859,0.009003, -0.033936, -0.253601,-0.278717, -0.085327, 0.139130
795, 7940000.000000,0.001495, 0.015106, -0.005859,0.009003, -0.033936, -0.253601,-0.278717, -0.085327, 0.139130
796, 7950000.000000,-0.002289, 0.016022, 0.003418,0.009003, -0.033936, -0.253601,-0.278717, -0.085327, 0.139130
797, 7960000.000000,-0.002289, 0.016022, 0.003418,0.009003, -0.033936, -0.253601,-0.278717, -0.085327, 0.139130
798, 7970000.000000,-0.002289, 0.016022, 0.016083,0.004303, -0.029358, -0.256104,-0.283142, -0.086304, 0.140533
799, 7980000.000000,-0.003082, 0.021759, 0.016083,0.004303, -0.029358, -0.256104,-0.283142, -0.086304, 0.140533
800, 7990000.000000,-0.003082, 0.021759, 0.016083,0.004303, -0.029358, -0.256104,-0.283142, -0.086304, 0.140533
801, 8000000.000000,0.004578, 0.030487, 0.032532,0.004303, -0.029358, -0.256104,-0.283142, -0.086304, 0.140533
802, 8010000.000000,0.004578, 0.030487, 0.032532,0.004303, -0.029358, -0.256104,-0.283142, -0.086304, 0.140533
803, 8020000.000000,0.004578, 0.038300, 0.047607,0.006866, -0.034302, -0.251495,-0.279510, -0.083282, 0.135101
804, 8030000.000000,0.008118, 0.037384, 0.047607,0.006866, -0.034302, -0.251495,-0.279510, -0.083282, 0.135101
805, 8040000.000000,0.008118, 0.037384, 0.047607,0.006866, -0.034302, -0.251495,-0.279510, -0.083282, 0.135101
806, 8050000.000000,0.002319, 0.040924, 0.057373,0.006866, -0.034302, -0.251495,-0.279510, -0.083282, 0.135101
807, 8060000.000000,0.002319, 0.040924, 0.057373,0.002594, -0.040253, -0.257111,-0.281097, -0.079926, 0.144867
808, 8070000.000000,-0.005493, 0.051331, 0.061768,0.002594, -0.040253, -0.257111,-0.281097, -0.079926, 0.144867
809, 8080000.000000,-0.003876, 0.051331, 0.061768,0.002594, -0.040253, -0.257111,-0.281097, -0.079926, 0.144867
810, 8090000.000000,-0.003876, 0.051331, 0.061768,0.002594, -0.040253, -0.257111,-0.281097, -0.079926, 0.144867
811, 8100000.000000,-0.014008, 0.063721, 0.063110,0.002594, -0.040253, -0.257111,-0.281097, -0.077057, 0.140472
812, 8110000.000000,-0.014008, 0.063721, 0.063110,0.001282, -0.034698, -0.251892,-0.277191, -0.077057, 0.140472
813, 8120000.000000,-0.014771, 0.081482, 0.063660,0.001282, -0.034698, -0.251892,-0.277191, -0.077057, 0.140472
814, 8130000.000000,-0.014771, 0.081482, 0.063660,0.001282, -0.034698, -0.251892,-0.277191, -0.077057, 0.140472
815, 8140000.000000,-0.012421, 0.089752, 0.060181,0.001282, -0.034698, -0.251892,-0.277191, -0.077057, 0.140472
816, 8150000.000000,-0.012421, 0.089752, 0.060181,0.006683, -0.039154, -0.248901,-0.283783, -0.076019, 0.146271
817, 8160000.000000,-0.022156, 0.080750, 0.046692,0.006683, -0.039154, -0.248901,-0.283783, -0.076019, 0.146271
818, 8170000.000000,-0.022156, 0.080750, 0.046692,0.006683, -0.039154, -0.248901,-0.283783, -0.076019, 0.146271
819, 8180000.000000,-0.028992, 0.079163, 0.026917,0.006683, -0.039154, -0.256714,-0.284088, -0.076294, 0.147339
820, 8190000.000000,-0.028992, 0.079163, 0.026917,-0.027435, -0.037598, -0.253876,-0.284088, -0.076294, 0.147339
821, 8200000.000000,-0.029083, 0.110535, -0.007019,-0.027435, -0.037598, -0.253876,-0.284088, -0.076294, 0.147339
822, 8210000.000000,-0.029083, 0.110535, -0.007019,-0.027435, -0.037598, -0.253876,-0.284088, -0.076294, 0.147339
823, 8220000.000000,-0.029083, 0.110535, -0.007019,-0.027435, -0.045410, -0.269196,-0.270874, -0.083557, 0.148804
824, 8230000.000000,0.096771, 0.256500, -0.136169,-0.148926, -0.039825, -0.269196,-0.270874, -0.083557, 0.148804
825, 8240000.000000,0.096771, 0.256500, -0.136169,-0.148926, -0.039825, -0.269196,-0.270874, -0.083557, 0.148804
826, 8250000.000000,0.284454, 0.470428, -0.350067,-0.148926, -0.039825, -0.269196,-0.270874, -0.083557, 0.148804
827, 8260000.000000,0.284454, 0.470428, -0.350067,-0.148926, -0.039825, -0.378571,-0.255249, -0.095184, 0.158325
828, 8270000.000000,0.458221, 0.779572, -0.122406,-0.112854, -0.018646, -0.381805,-0.254944, -0.095184, 0.158325
829, 8280000.000000,0.458221, 0.779572, -0.122406,-0.112854, -0.018646, -0.381805,-0.254944, -0.095184, 0.158325
830, 8290000.000000,0.630096, 0.985474, -0.273590,-0.112854, -0.018646, -0.381805,-0.254944, -0.095184, 0.158325
831, 8300000.000000,0.632416, 0.985474, -0.273590,-0.112854, -0.018646, -0.381805,-0.254944, -0.095184, 0.158325
832, 8310000.000000,0.632416, 0.985474, -0.554840,-0.092651, -0.074310, -0.434998,-0.209961, -0.120483, 0.194305
833, 8320000.000000,0.677124, 0.989258, -0.556152,-0.092651, -0.074310, -0.434998,-0.209961, -0.120483, 0.194305
834, 8330000.000000,0.677124, 0.989258, -0.556152,-0.092651, -0.074310, -0.434998,-0.209961, -0.120483, 0.194305
835, 8340000.000000,0.673706, 0.989258, -0.665466,-0.092651, -0.074310, -0.434998,-0.209961, -0.151733, 0.230164
836, 8350000.000000,0.673706, 0.989258, -0.665466,-0.101227, -0.023926, -0.471680,-0.141632, -0.151276, 0.230164
837, 8360000.000000,0.837646, 0.989258, -0.715454,-0.101227, -0.023926, -0.471680,-0.141632, -0.151276, 0.230164
838, 8370000.000000,0.837646, 0.989258, -0.715454,-0.101227, -0.023926, -0.471680,-0.141632, -0.151276, 0.230164
839, 8380000.000000,0.892517, 0.989258, -0.869995,-0.101227, -0.023926, -0.471680,-0.141632, -0.151276, 0.230164
840, 8390000.000000,0.892517, 0.989258, -0.869995,-0.361816, -0.006775, -0.177216,-0.062836, -0.178070, 0.253906
841, 8400000.000000,0.892517, 0.989258, -0.983948,-0.361816, -0.006775, -0.177216,-0.062836, -0.178070, 0.253906
842, 8410000.000000,0.796722, 0.989258, -0.983948,-0.361816, -0.006775, -0.177216,-0.062836, -0.178070, 0.253906
843, 8420000.000000,0.796722, 0.989258, -0.983948,-0.361816, -0.006775, -0.177216,-0.062836, -0.178070, 0.253906
844, 8430000.000000,0.758850, 0.989258, -0.997070,0.074951, -0.083954, 0.032898,0.030975, -0.198853, 0.268768
845, 8440000.000000,0.758850, 0.989258, -0.997070,0.074951, -0.083954, 0.032898,0.030975, -0.198853, 0.268768
846, 8450000.000000,0.576782, 0.934357, -0.908112,0.074951, -0.083954, 0.032898,0.030975, -0.198853, 0.268768
847, 8460000.000000,0.576782, 0.934357, -0.908112,0.074951, -0.083954, 0.032898,0.030975, -0.198853, 0.268768
848, 8470000.000000,0.576782, 0.934357, -0.908112,0.074951, -0.083954, -0.999756,0.017578, -0.179199, 0.245056
849, 8480000.000000,-0.036377, 0.335266, -0.527008,-0.234894, -0.673126, -0.999756,0.017578, -0.179199, 0.245056
850, 8490000.000000,-0.036377, 0.335266, -0.527008,-0.234894, -0.673126, -0.999756,0.017578, -0.179199, 0.245056
851, 8500000.000000,-0.187927, -0.076447, -0.126495,-0.234894, -0.673126, -0.999756,0.017578, -0.179199, 0.245056
852, 8510000.000000,-0.187927, -0.076447, -0.126495,-0.234894, -0.673126, -0.999756,0.017578, -0.179199, 0.245056
853, 8520000.000000,-0.187927, -0.076447, 0.183685,-0.179932, -0.377380, -0.588470,-0.044678, -0.140320, 0.191620
854, 8530000.000000,-0.389954, -0.553375, 0.183685,-0.179932, -0.377380, -0.588470,-0.044678, -0.140320, 0.191620
855, 8540000.000000,-0.389954, -0.553375, 0.183685,-0.179932, -0.377380, -0.588470,-0.044678, -0.140320, 0.191620
856, 8550000.000000,-0.604919, -0.760590, 0.272705,-0.179932, -0.377380, -0.588470,-0.044678, -0.140320, 0.191620
857, 8560000.000000,-0.604919, -0.760590, 0.272705,-0.179932, 0.011444, -0.168030,-0.107513, -0.095428, 0.119049
858, 8570000.000000,-0.619171, -0.803131, 0.222168,-0.106903, 0.011444, -0.168030,-0.107513, -0.095428, 0.119049
859, 8580000.000000,-0.619171, -0.803131, 0.222168,-0.106903, 0.011444, -0.168030,-0.107513, -0.095428, 0.119049
860, 8590000.000000,-0.619171, -0.803131, 0.222168,-0.106903, 0.011444, -0.168030,-0.107513, -0.095428, 0.119049
861, 8600000.000000,-0.457581, -0.792358, 0.115692,-0.106903, 0.011444, -0.168030,-0.107513, -0.095428, 0.119049
862, 8610000.000000,-0.457581, -0.792358, 0.115692,-0.062164, 0.089020, -0.149933,-0.128571, -0.060608, 0.027100
863, 8620000.000000,-0.230591, -0.794220, -0.002563,-0.062164, 0.089020, -0.149933,-0.128571, -0.060608, 0.027100
864, 8630000.000000,-0.230591, -0.794220, -0.002563,-0.062164, 0.089020, -0.149933,-0.128571, -0.060608, 0.027100
865, 8640000.000000,-0.230591, -0.794220, -0.002563,-0.062164, 0.089020, -0.149933,-0.128571, -0.060608, 0.027100
866, 8650000.000000,-0.042725, -0.848114, -0.105164,0.000336, 0.004852, -0.291656,-0.116302, -0.032318, -0.053711
867, 8660000.000000,-0.042725, -0.848114, -0.105164,0.006500, 0.004852, -0.291656,-0.116302, -0.032318, -0.053711
868, 8670000.000000,0.049042, -0.948547, -0.170715,0.006500, 0.004852, -0.291656,-0.116302, -0.032318, -0.053711
869, 8680000.000000,0.049042, -0.948547, -0.170715,0.006500, 0.004852, -0.291656,-0.116302, -0.032318, -0.053711
870, 8690000.000000,0.049042, -0.948547, -0.195190,0.006500, 0.004852, -0.291656,-0.116302, -0.032318, -0.053711
871, 8700000.000000,0.047852, -0.998596, -0.195190,0.059021, -0.089844, -0.329590,-0.067352, -0.009125, -0.100342
872, 8710000.000000,0.047852, -0.998596, -0.195190,0.059021, -0.089844, -0.329590,-0.067352, -0.009125, -0.100342
873, 8720000.000000,-0.017303, -1.000000, -0.188843,0.059021, -0.089844, -0.329590,-0.067352, -0.009125, -0.100342
874, 8730000.000000,-0.017303, -1.000000, -0.188843,0.059021, -0.089844, -0.329590,-0.067352, -0.009125, -0.100342
875, 8740000.000000,-0.017303, -1.000000, -0.181732,0.059021, -0.047302, -0.187286,-0.002747, 0.008179, -0.105377
876, 8750000.000000,-0.076294, -1.000000, -0.181732,0.099457, -0.047302, -0.187286,-0.002747, 0.008179, -0.105377
877, 8760000.000000,-0.076294, -1.000000, -0.181732,0.099457, -0.047302, -0.187286,-0.002747, 0.008179, -0.105377
878, 8770000.000000,-0.075867, -1.000000, -0.187134,0.099457, -0.047302, -0.187286,-0.002747, 0.008179, -0.105377
879, 8780000.000000,-0.075867, -1.000000, -0.187134,0.099457, -0.047302, -0.187286,-0.002747, 0.008179, -0.105377
880, 8790000.000000,-0.011230, -1.000000, -0.203339,0.107635, -0.000641, -0.085907,0.038940, 0.027985, -0.074249
881, 8800000.000000,-0.011230, -1.000000, -0.203339,0.107635, -0.000641, -0.085907,0.038940, 0.027985, -0.074249
882, 8810000.000000,-0.011230, -1.000000, -0.203339,0.107635, -0.000641, -0.085907,0.038940, 0.027985, -0.074249
883, 8820000.000000,0.073456, -1.000000, -0.214966,0.107635, -0.000641, -0.085907,0.038940, 0.027985, -0.074249
884, 8830000.000000,0.073456, -1.000000, -0.214966,0.110901, -0.069031, -0.166260,0.057007, 0.037323, -0.032562
885, 8840000.000000,0.137451, -1.000000, -0.204742,0.110901, -0.069031, -0.166260,0.057007, 0.037323, -0.032562
886, 8850000.000000,0.137451, -1.000000, -0.204742,0.110901, -0.069031, -0.166260,0.057007, 0.037323, -0.032562
887, 8860000.000000,0.160889, -1.000000, -0.161804,0.110901, -0.069031, -0.166260,0.057007, 0.037323, -0.032562
888, 8870000.000000,0.163177, -1.000000, -0.161804,0.110901, -0.069031, -0.345947,0.049683, 0.050903, -0.007782
889, 8880000.000000,0.163177, -1.000000, -0.161804,0.148499, -0.147095, -0.344971,0.049683, 0.050903, -0.007782
890, 8890000.000000,0.157074, -1.000000, -0.094482,0.148499, -0.147095, -0.344971,0.049683, 0.050903, -0.007782
891, 8900000.000000,0.157074, -1.000000, -0.094482,0.148499, -0.147095, -0.344971,0.049683, 0.050903, -0.007782
892, 8910000.000000,0.141632, -1.000000, -0.012756,0.195374, -0.186859, -0.361267,0.025269, 0.063660, -0.012085
893, 8920000.000000,0.141632, -1.000000, -0.012756,0.200592, -0.186859, -0.361267,0.025269, 0.063660, -0.012085
894, 8930000.000000,0.123993, -1.000000, 0.078400,0.200592, -0.186859, -0.361267,0.025269, 0.063660, -0.012085
895, 8940000.000000,0.123993, -1.000000, 0.078400,0.200592, -0.186859, -0.361267,0.025269, 0.063660, -0.012085
896, 8950000.000000,0.104828, -0.999969, 0.172516,0.200592, -0.186859, -0.361267,0.025269, 0.063660, -0.028656
897, 8960000.000000,0.104828, -0.999969, 0.172516,0.234680, -0.180298, -0.302551,0.021667, 0.083160, -0.028656
898, 8970000.000000,0.104828, -0.999969, 0.172516,0.234680, -0.180298, -0.302551,0.021667, 0.083160, -0.028656
899, 8980000.000000,0.098999, -0.986389, 0.256104,0.234680, -0.180298, -0.302551,0.021667, 0.083160, -0.028656
900, 8990000.000000,0.098999, -0.986389, 0.256104,0.234680, -0.180298, -0.302551,0.021667, 0.098785, -0.052460
901, 9000000.000000,0.118103, -0.922791, 0.326660,0.267303, -0.136932, -0.309235,0.023102, 0.097809, -0.052460
902, 9010000.000000,0.118103, -0.922791, 0.326660,0.267303, -0.136932, -0.309235,0.023102, 0.097809, -0.052460
903, 9020000.000000,0.158539, -0.847656, 0.382050,0.267303, -0.136932, -0.309235,0.023102, 0.097809, -0.052460
904, 9030000.000000,0.158539, -0.847656, 0.382050,0.267303, -0.136932, -0.309235,0.023102, 0.097809, -0.052460
905, 9040000.000000,0.158539, -0.847656, 0.428925,0.301575, -0.097260, -0.356201,0.036835, 0.108734, -0.051331
906, 9050000.000000,0.197296, -0.783875, 0.422760,0.301575, -0.097260, -0.356201,0.036835, 0.108734, -0.051331
907, 9060000.000000,0.197296, -0.783875, 0.422760,0.301575, -0.097260, -0.356201,0.036835, 0.108734, -0.051331
908, 9070000.000000,0.212982, -0.732666, 0.453217,0.301575, -0.097260, -0.356201,0.036835, 0.108734, -0.051331
909, 9080000.000000,0.212982, -0.732666, 0.453217,0.309784, -0.074158, -0.377075,0.050049, 0.115204, -0.061096
910, 9090000.000000,0.194672, -0.690491, 0.474854,0.309784, -0.074158, -0.377075,0.050049, 0.115204, -0.061096
911, 9100000.000000,0.194672, -0.690491, 0.474854,0.309784, -0.074158, -0.377075,0.050049, 0.115204, -0.061096
912, 9110000.000000,0.159973, -0.644592, 0.479858,0.309784, -0.074158, -0.377075,0.050049, 0.115204, -0.061096
913, 9120000.000000,0.159973, -0.644592, 0.479858,0.309784, -0.019470, -0.342804,0.062958, 0.120300, -0.048126
914, 9130000.000000,0.159973, -0.644592, 0.479858,0.301331, -0.018402, -0.342804,0.062958, 0.120300, -0.048126
915, 9140000.000000,0.129059, -0.594208, 0.463257,0.301331, -0.018402, -0.342804,0.062958, 0.120300, -0.048126
916, 9150000.000000,0.129059, -0.594208, 0.463257,0.301331, -0.018402, -0.342804,0.062958, 0.120300, -0.048126
917, 9160000.000000,0.106598, -0.536713, 0.425934,0.301331, -0.018402, -0.388306,0.072357, 0.121521, -0.044647
918, 9170000.000000,0.106598, -0.536713, 0.425934,0.352661, -0.066528, -0.388306,0.072357, 0.121521, -0.044647
919, 9180000.000000,0.080841, -0.494385, 0.386993,0.352661, -0.066528, -0.388306,0.072357, 0.121521, -0.044647
920, 9190000.000000,0.080841, -0.494385, 0.386993,0.352661, -0.066528, -0.388306,0.072357, 0.121521, -0.044647
921, 9200000.000000,0.067352, -0.493378, 0.360138,0.415161, -0.018036, -0.362305,0.080200, 0.119415, -0.046570
922, 9210000.000000,0.067352, -0.493378, 0.360138,0.421631, -0.018036, -0.362305,0.080200, 0.119415, -0.046570
923, 9220000.000000,0.151337, -0.516296, 0.346069,0.421631, -0.018036, -0.362305,0.080200, 0.119415, -0.046570
924, 9230000.000000,0.151337, -0.516296, 0.346069,0.421631, -0.018036, -0.362305,0.080200, 0.119415, -0.046570
925, 9240000.000000,0.151337, -0.516296, 0.314819,0.421631, -0.018036, -0.362305,0.088013, 0.120575, -0.049713
926, 9250000.000000,0.273926, -0.487946, 0.315552,0.460114, 0.005676, -0.212921,0.089752, 0.120575, -0.049713
927, 9260000.000000,0.273926, -0.487946, 0.286194,0.460114, 0.005676, -0.212921,0.089752, 0.120575, -0.049713
928, 9270000.000000,0.240173, -0.416656, 0.286194,0.460114, 0.005676, -0.212921,0.089752, 0.120575, -0.049713
929, 9280000.000000,0.240173, -0.416656, 0.286194,0.460114, -0.058868, 0.118744,0.093048, 0.120026, -0.040588
930, 9290000.000000,0.112244, -0.295227, 0.277405,0.533386, -0.058868, 0.118744,0.093048, 0.120026, -0.040588
931, 9300000.000000,0.112244, -0.295227, 0.277405,0.533386, -0.058868, 0.118744,0.093048, 0.120026, -0.040588
932, 9310000.000000,-0.052551, 0.042084, 0.275269,0.533386, -0.058868, 0.118744,0.093048, 0.120026, -0.040588
933, 9320000.000000,-0.052551, 0.042084, 0.275269,0.533386, -0.058868, 0.164001,0.097382, 0.118225, -0.037079
934, 9330000.000000,-0.149628, 0.288147, 0.269684,0.609802, 0.006683, 0.164001,0.097382, 0.118225, -0.037079
935, 9340000.000000,-0.149628, 0.288147, 0.269684,0.609802, 0.006683, 0.164001,0.097382, 0.118225, -0.037079
936, 9350000.000000,-0.149628, 0.288147, 0.253540,0.609802, 0.006683, 0.164001,0.097382, 0.118225, -0.037079
937, 9360000.000000,-0.171997, 0.531799, 0.253540,0.609802, 0.006683, 0.164001,0.097382, 0.118225, -0.047760
938, 9370000.000000,-0.171997, 0.531799, 0.253540,0.468719, 0.019958, 0.177094,0.095154, 0.118164, -0.047760
939, 9380000.000000,-0.178192, 0.632263, 0.226776,0.468719, 0.019958, 0.177094,0.095154, 0.118164, -0.047760
940, 9390000.000000,-0.178192, 0.632263, 0.226776,0.468719, 0.019958, 0.177094,0.095154, 0.118164, -0.047760
941, 9400000.000000,-0.164154, 0.661438, 0.210480,0.468719, 0.019958, -0.674469,0.087341, 0.122070, -0.043671
942, 9410000.000000,-0.164154, 0.661438, 0.210480,-0.127014, -0.012421, -0.673096,0.087067, 0.122070, -0.043671
943, 9420000.000000,-0.022369, 0.806732, 0.260101,-0.127014, -0.012421, -0.673096,0.087067, 0.122070, -0.043671
944, 9430000.000000,-0.022369, 0.806732, 0.260101,-0.127014, -0.012421, -0.673096,0.087067, 0.122070, -0.043671
945, 9440000.000000,0.042053, 0.585449, 0.283264,-0.127014, -0.012421, -0.286224,0.090546, 0.120667, -0.048004
946, 9450000.000000,0.042053, 0.585449, 0.283264,0.050568, 0.212433, -0.286224,0.090546, 0.120667, -0.048004
947, 9460000.000000,0.042053, 0.480011, 0.188477,0.050568, 0.212433, -0.286224,0.090546, 0.120667, -0.048004
948, 9470000.000000,-0.042236, 0.480011, 0.188477,0.050568, 0.212433, -0.286224,0.090546, 0.120667, -0.048004
949, 9480000.000000,-0.042236, 0.480011, 0.029053,0.050568, 0.212433, -0.286224,0.090546, 0.126282, -0.043457
950, 9490000.000000,-0.077667, 0.559265, 0.029053,0.043610, 0.373901, -0.527802,0.085938, 0.126282, -0.043457
951, 9500000.000000,-0.077667, 0.559265, 0.029053,0.043610, 0.373901, -0.527802,0.085938, 0.126282, -0.043457
952, 9510000.000000,-0.060791, 0.552277, -0.102936,0.043610, 0.373901, -0.527802,0.085938, 0.126282, -0.043457
953, 9520000.000000,-0.060791, 0.552277, -0.102936,0.043610, 0.373901, -0.527802,0.085938, 0.126282, -0.043457
954, 9530000.000000,-0.332397, 0.513275, -0.046722,0.184357, -0.706665, -0.757355,0.087769, 0.127441, -0.048676
955, 9540000.000000,-0.332397, 0.513275, -0.046722,0.184357, -0.706665, -0.757355,0.087769, 0.127441, -0.048676
956, 9550000.000000,-0.433075, 0.159882, 0.068237,0.184357, -0.706665, -0.757355,0.087769, 0.127441, -0.048676
957, 9560000.000000,-0.433075, 0.159882, 0.068237,0.184357, -0.706665, -0.757355,0.087769, 0.127441, -0.048676
958, 9570000.000000,-0.433075, 0.159882, 0.068237,0.010254, 0.254333, -0.550964,0.082703, 0.125427, -0.046143
959, 9580000.000000,-0.275513, 0.185547, 0.044830,0.010254, 0.254333, -0.550964,0.082703, 0.125427, -0.046143
960, 9590000.000000,-0.275513, 0.185547, 0.044830,0.010254, 0.254333, -0.550964,0.082703, 0.125427, -0.046143
961, 9600000.000000,-0.124176, 0.099518, -0.023682,0.010254, 0.254333, -0.550964,0.082703, 0.125427, -0.050385
962, 9610000.000000,-0.124176, 0.099518, -0.023682,0.026001, -0.040649, -0.334320,0.083954, 0.125427, -0.050385
963, 9620000.000000,-0.113861, 0.108734, -0.001343,0.026001, -0.040649, -0.334320,0.083954, 0.125427, -0.050385
964, 9630000.000000,-0.113861, 0.108734, -0.001343,0.026001, -0.040649, -0.334320,0.083954, 0.125427, -0.050385
965, 9640000.000000,-0.092377, 0.072418, 0.013733,0.026001, -0.040649, -0.334320,0.083954, 0.123779, -0.051147
966, 9650000.000000,-0.092377, 0.072418, 0.013733,-0.003937, -0.037933, -0.295135,0.081085, 0.123779, -0.051147
967, 9660000.000000,-0.083588, 0.062805, 0.003113,-0.003937, -0.037933, -0.295135,0.081085, 0.123779, -0.051147
968, 9670000.000000,-0.083588, 0.062805, 0.003113,-0.003937, -0.037933, -0.295135,0.081085, 0.123779, -0.051147
969, 9680000.000000,-0.083588, 0.062805, 0.003113,-0.003937, -0.037933, -0.295135,0.081085, 0.123779, -0.051147
970, 9690000.000000,-0.076935, 0.042816, -0.000946,-0.014771, -0.025360, -0.268250,0.089294, 0.124023, -0.049469
971, 9700000.000000,-0.076935, 0.042816, -0.000946,-0.014771, -0.025360, -0.268250,0.089294, 0.124023, -0.049469
972, 9710000.000000,-0.074646, 0.034027, -0.014832,-0.014771, -0.025360, -0.268250,0.089294, 0.124023, -0.049469
973, 9720000.000000,-0.074646, 0.034027, -0.014832,-0.014771, -0.025360, -0.268250,0.089294, 0.124023, -0.049469
974, 9730000.000000,-0.074646, 0.034027, -0.016083,-0.014771, -0.025360, -0.268250,0.089294, 0.122162, -0.050171
975, 9740000.000000,-0.067017, 0.026306, -0.016083,-0.018494, -0.015045, -0.256927,0.082489, 0.122162, -0.050171
976, 9750000.000000,-0.067017, 0.026306, -0.016083,-0.018494, -0.015045, -0.256927,0.082489, 0.122162, -0.050171
977, 9760000.000000,-0.052856, 0.026459, -0.009033,-0.018494, -0.015045, -0.256927,0.082489, 0.122162, -0.050171
978, 9770000.000000,-0.052856, 0.026459, -0.009033,-0.018494, -0.015045, -0.256927,0.082489, 0.122162, -0.050171
979, 9780000.000000,-0.052856, 0.026459, -0.008484,-0.022095, -0.009003, -0.260712,0.079102, 0.125336, -0.051880
980, 9790000.000000,-0.038269, 0.029083, -0.008484,-0.022095, -0.009003, -0.260712,0.079102, 0.125336, -0.051880
981, 9800000.000000,-0.038269, 0.029083, -0.008484,-0.022095, -0.009003, -0.260712,0.079102, 0.125336, -0.051880
982, 9810000.000000,-0.025940, 0.031860, -0.005890,-0.022095, -0.009003, -0.260712,0.079102, 0.125336, -0.051880
983, 9820000.000000,-0.025940, 0.031860, -0.005890,-0.022095, -0.009003, -0.260712,0.079102, 0.117523, -0.047363
984, 9830000.000000,-0.016510, 0.035461, -0.005981,-0.019073, -0.014801, -0.263947,0.083740, 0.122162, -0.047363
985, 9840000.000000,-0.016510, 0.035461, -0.005981,-0.019073, -0.014801, -0.263947,0.083740, 0.122162, -0.047363
986, 9850000.000000,-0.016510, 0.035461, -0.005981,-0.019073, -0.014801, -0.263947,0.083740, 0.122162, -0.047363
987, 9860000.000000,-0.013977, 0.033417, -0.009521,-0.019073, -0.014801, -0.263947,0.083740, 0.122955, -0.052551
988, 9870000.000000,-0.013977, 0.033417, -0.009521,-0.022064, -0.020874, -0.251190,0.079193, 0.122955, -0.052551
989, 9880000.000000,-0.010986, 0.035492, -0.012817,-0.022064, -0.020874, -0.251190,0.079193, 0.122955, -0.052551
990, 9890000.000000,-0.010986, 0.035492, -0.012817,-0.022064, -0.020874, -0.251190,0.079193, 0.122955, -0.052551
991, 9900000.000000,-0.007721, 0.043610, -0.016846,-0.022064, -0.020874, -0.251190,0.079193, 0.122955, -0.052551
992, 9910000.000000,-0.007721, 0.043610, -0.016846,-0.017120, -0.022644, -0.262329,0.079895, 0.123199, -0.052917
993, 9920000.000000,-0.007721, 0.043610, -0.016846,-0.017120, -0.022644, -0.262329,0.079895, 0.123199, -0.052917
994, 9930000.000000,-0.003632, 0.046539, -0.018585,-0.017120, -0.022644, -0.262329,0.079895, 0.123199, -0.052917
995, 9940000.000000,-0.003632, 0.046539, -0.018585,-0.017120, -0.022644, -0.262329,0.079895, 0.123199, -0.052917
996, 9950000.000000,-0.000183, 0.045074, -0.021057,-0.017120, -0.022644, -0.262329,0.079895, 0.131012, -0.065765
997, 9960000.000000,-0.000183, 0.045074, -0.021057,-0.016907, -0.016449, -0.255005,0.081879, 0.125488, -0.065765
998, 9970000.000000,0.006073, 0.050995, -0.020172,-0.016907, -0.016449, -0.255005,0.081879, 0.125488, -0.065765
999, 9980000.000000,0.006073, 0.050995, -0.020172,-0.016907, -0.016449, -0.255005,0.081879, 0.125488, -0.065765
1000, 9990000.000000,0.012909, 0.048706, -0.018768,-0.016907, -0.016449, -0.251953,0.080475, 0.124268, -0.059601
1001, 10000000.000000,0.012909, 0.048706, -0.018768,-0.017578, -0.017273, -0.251953,0.080475, 0.124268, -0.059601
1002, 10010000.000000,0.012909, 0.048706, -0.018768,-0.017578, -0.017273, -0.251953,0.080475, 0.124268, -0.059601
1003, 10020000.000000,0.015564, 0.047668, -0.021454,-0.017578, -0.017273, -0.251953,0.080475, 0.124268, -0.059601
1004, 10030000.000000,0.015564, 0.047668, -0.021454,-0.017578, -0.017273, -0.255280,0.082703, 0.125732, -0.055969
1005, 10040000.000000,0.016296, 0.048340, -0.020782,-0.012848, -0.017273, -0.255280,0.082703, 0.125732, -0.055969
1006, 10050000.000000,0.016296, 0.048340, -0.020782,-0.012848, -0.017273, -0.255280,0.082703, 0.125732, -0.055969
1007, 10060000.000000,0.016296, 0.043793, -0.019012,-0.012848, -0.017273, -0.255280,0.082703, 0.125732, -0.055969
1008, 10070000.000000,0.016296, 0.043793, -0.019012,-0.018829, -0.015717, -0.252197,0.079712, 0.126526, -0.053497
1009, 10080000.000000,0.015320, 0.036041, -0.020020,-0.018829, -0.015717, -0.252197,0.079712, 0.126526, -0.053497
1010, 10090000.000000,0.015320, 0.036041, -0.020020,-0.018829, -0.015717, -0.252197,0.079712, 0.126526, -0.053497
1011, 10100000.000000,0.018585, 0.038971, -0.020721,-0.018829, -0.015717, -0.252197,0.079712, 0.126526, -0.053497
1012, 10110000.000000,0.018585, 0.038971, -0.020721,-0.018829, -0.019043, -0.259033,0.080261, 0.125183, -0.056213
1013, 10120000.000000,0.020325, 0.040375, -0.023315,-0.015961, -0.019043, -0.259033,0.080261, 0.125183, -0.056213
1014, 10130000.000000,0.020325, 0.040375, -0.023315,-0.015961, -0.019043, -0.259033,0.080261, 0.125183, -0.056213
1015, 10140000.000000,0.023621, 0.046692, -0.027283,-0.015961, -0.019043, -0.259033,0.080261, 0.125183, -0.056213
1016, 10150000.000000,0.023621, 0.046692, -0.027283,-0.008148, -0.025848, -0.253113,0.083588, 0.127441, -0.052399
1017, 10160000.000000,0.023621, 0.046692, -0.027283,-0.013580, -0.025848, -0.253113,0.083588, 0.127441, -0.052399
1018, 10170000.000000,0.023102, 0.053375, -0.029999,-0.013580, -0.025848, -0.253113,0.083588, 0.127441, -0.052399
1019, 10180000.000000,0.023102, 0.053375, -0.029999,-0.013580, -0.025848, -0.253113,0.083588, 0.127441, -0.052399
1020, 10190000.000000,0.018005, 0.055969, -0.032715,-0.013580, -0.025848, -0.253113,0.083588, 0.120209, -0.054199
1021, 10200000.000000,0.018005, 0.055969, -0.032715,-0.012421, -0.023376, -0.248444,0.079712, 0.120209, -0.054199
1022, 10210000.000000,0.010193, 0.056427, -0.035522,-0.012421, -0.023376, -0.248444,0.079712, 0.120209, -0.054199
1023, 10220000.000000,0.012665, 0.056427, -0.035522,-0.012421, -0.023376, -0.248444,0.079712, 0.120209, -0.054199
1024, 10230000.000000,0.012665, 0.056427, -0.035522,-0.012421, -0.023376, -0.248444,0.079712, 0.120209, -0.054199
1025, 10240000.000000,0.012573, 0.056519, -0.040222,-0.011444, -0.022217, -0.257446,0.084259, 0.126434, -0.051666
1026, 10250000.000000,0.012573, 0.056519, -0.040222,-0.011444, -0.022217, -0.257446,0.084259, 0.126434, -0.051666
1027, 10260000.000000,0.011047, 0.055237, -0.042877,-0.011444, -0.022217, -0.257446,0.084259, 0.126434, -0.051666
1028, 10270000.000000,0.011047, 0.055237, -0.042877,-0.011444, -0.022217, -0.257446,0.084259, 0.126434, -0.051666
1029, 10280000.000000,0.009338, 0.056732, -0.048553,-0.011505, -0.016083, -0.248230,0.082428, 0.124969, -0.048004
1030, 10290000.000000,0.009338, 0.056732, -0.048553,-0.011505, -0.016083, -0.248230,0.082428, 0.124969, -0.048004
1031, 10300000.000000,0.009277, 0.060944, -0.061249,-0.011505, -0.016083, -0.248230,0.082428, 0.124969, -0.048004
1032, 10310000.000000,0.009277, 0.060944, -0.061249,-0.011505, -0.016083, -0.248230,0.082428, 0.125305, -0.058563
1033, 10320000.000000,0.011292, 0.070343, -0.075439,-0.010345, -0.005859, -0.256195,0.076660, 0.125305, -0.058563
1034, 10330000.000000,0.011292, 0.070343, -0.075439,-0.010345, -0.005859, -0.256195,0.076660, 0.125305, -0.058563
1035, 10340000.000000,0.011292, 0.078156, -0.098785,-0.010345, -0.005859, -0.256195,0.076660, 0.125305, -0.058563
1036, 10350000.000000,0.012360, 0.082733, -0.098785,-0.010345, -0.005859, -0.256195,0.076660, 0.125305, -0.058563
1037, 10360000.000000,0.012360, 0.082733, -0.098785,-0.010803, -0.017731, -0.245056,0.081604, 0.126617, -0.055267
1038, 10370000.000000,0.017120, 0.096863, -0.082214,-0.010803, -0.017731, -0.245056,0.081604, 0.126617, -0.055267
1039, 10380000.000000,0.017120, 0.096863, -0.082214,-0.010803, -0.017731, -0.245056,0.081604, 0.126617, -0.055267
1040, 10390000.000000,0.026520, 0.102386, -0.073944,-0.010803, -0.017731, -0.245056,0.081604, 0.126617, -0.055267
1041, 10400000.000000,0.026520, 0.102386, -0.073944,-0.005707, -0.028473, -0.256744,0.080475, 0.128845, -0.058655
1042, 10410000.000000,0.022949, 0.081268, -0.048187,-0.005707, -0.028473, -0.256744,0.080475, 0.128845, -0.058655
1043, 10420000.000000,0.022949, 0.081268, -0.048187,-0.005707, -0.028473, -0.256744,0.080475, 0.128845, -0.058655
1044, 10430000.000000,0.021729, -0.026642, 0.015350,-0.009705, -0.044281, -0.259705,0.067352, 0.127777, -0.052399
1045, 10440000.000000,0.021729, -0.026642, 0.015350,-0.009705, -0.044281, -0.259705,0.067352, 0.127777, -0.052399
1046, 10450000.000000,0.021729, -0.003204, 0.013947,-0.009705, -0.044281, -0.259705,0.067352, 0.127777, -0.052399
1047, 10460000.000000,0.012939, -0.006592, 0.013947,-0.009705, -0.044281, -0.259705,0.067352, 0.127777, -0.052399
1048, 10470000.000000,0.012939, -0.006592, 0.013947,-0.008972, -0.039154, -0.261627,0.073730, 0.128021, -0.050659
1049, 10480000.000000,0.012939, 0.027283, 0.002502,-0.008972, -0.039154, -0.261627,0.073730, 0.128021, -0.050659
1050, 10490000.000000,0.012939, 0.027283, 0.002502,-0.008972, -0.039154, -0.261627,0.073730, 0.128021, -0.050659
1051, 10500000.000000,0.015930, 0.063049, 0.000061,-0.008972, -0.039154, -0.261627,0.073730, 0.128021, -0.050659
1052, 10510000.000000,0.015930, 0.063049, 0.000061,-0.008972, -0.039154, -0.261627,0.073120, 0.124817, -0.053558
1053, 10520000.000000,0.031677, 0.090576, -0.004120,-0.008972, -0.039001, -0.260559,0.073120, 0.124817, -0.053558
1054, 10530000.000000,0.031677, 0.090576, -0.004120,-0.008972, -0.039001, -0.260559,0.073120, 0.124817, -0.053558
1055, 10540000.000000,0.031677, 0.090576, -0.004120,-0.008972, -0.039001, -0.260559,0.073120, 0.124817, -0.053558
1056, 10550000.000000,0.034760, 0.110260, -0.007019,-0.008972, -0.039001, -0.260559,0.078033, 0.128479, -0.049133
1057, 10560000.000000,0.034760, 0.110260, -0.007019,-0.004028, -0.041138, -0.258606,0.078033, 0.128479, -0.049133
1058, 10570000.000000,0.048615, 0.136108, -0.004059,-0.004028, -0.041138, -0.258606,0.078033, 0.128479, -0.049133
1059, 10580000.000000,0.048615, 0.136108, 0.007019,-0.004028, -0.041138, -0.258606,0.078033, 0.128479, -0.049133
1060, 10590000.000000,0.059753, 0.166504, 0.007019,-0.002869, -0.037720, -0.256775,0.072601, 0.128235, -0.046356
1061, 10600000.000000,0.059753, 0.166504, 0.007019,-0.002869, -0.037720, -0.256775,0.072601, 0.128235, -0.046356
1062, 10610000.000000,0.036407, 0.178650, 0.013977,-0.002869, -0.037720, -0.256775,0.072601, 0.128235, -0.046356
1063, 10620000.000000,0.036407, 0.178650, 0.013977,-0.002869, -0.037720, -0.256775,0.072601, 0.128235, -0.046356
1064, 10630000.000000,-0.027435, 0.173218, 0.027374,-0.002869, -0.033813, -0.252960,0.078430, 0.130554, -0.051270
1065, 10640000.000000,-0.027435, 0.173218, 0.027374,0.001709, -0.033813, -0.252960,0.078430, 0.130554, -0.051270
1066, 10650000.000000,-0.028107, 0.181610, -0.048492,0.001709, -0.033813, -0.252960,0.078430, 0.130554, -0.051270
1067, 10660000.000000,-0.028107, 0.181610, -0.048492,0.001709, -0.033813, -0.252960,0.078430, 0.130554, -0.051270
1068, 10670000.000000,-0.028107, 0.181610, -0.048492,0.001709, -0.033813, -0.252960,0.078430, 0.129608, -0.051910
1069, 10680000.000000,-0.019379, 0.316376, -0.095856,-0.211609, -0.081055, -0.293854,0.071136, 0.129608, -0.051910
1070, 10690000.000000,-0.019379, 0.316376, -0.095856,-0.211609, -0.081055, -0.293854,0.071136, 0.129608, -0.051910
