Index,Time(us), GyroX , GyroY , GyroZ ,AccX , AccY , AccZ , MagX , MagY , MagZ
1, 0.000000,-0.000763, 0.010925, -0.014587,-0.019104, -0.019653, -0.258545,0.198730, -0.071869, 0.026093
2, 10000.000000,-0.000763, 0.010925, -0.014587,-0.019104, -0.019653, -0.258545,0.198730, -0.071869, 0.026093
3, 20000.000000,-0.001007, 0.010590, -0.015259,-0.019104, -0.017670, -0.253815,0.201996, -0.072540, 0.022705
4, 30000.000000,-0.001007, 0.010590, -0.015564,-0.018494, -0.017670, -0.253815,0.201996, -0.072540, 0.022705
5, 40000.000000,-0.000427, 0.009583, -0.015564,-0.018494, -0.017670, -0.253815,0.201996, -0.072540, 0.022705
6, 50000.000000,-0.000427, 0.009583, -0.015564,-0.018494, -0.017670, -0.253815,0.201996, -0.072540, 0.022705
7, 60000.000000,0.000092, 0.009644, -0.015533,-0.018494, -0.017670, -0.253815,0.209808, -0.071442, 0.024536
8, 70000.000000,0.000092, 0.009644, -0.015533,-0.017761, -0.018463, -0.254852,0.206970, -0.071442, 0.024536
9, 80000.000000,-0.001038, 0.010529, -0.013794,-0.017761, -0.018463, -0.254852,0.206970, -0.071442, 0.024536
10, 90000.000000,-0.001038, 0.010529, -0.013794,-0.017761, -0.018463, -0.254852,0.206970, -0.071442, 0.024536
11, 100000.000000,-0.001160, 0.011261, -0.014130,-0.014648, -0.019318, -0.255829,0.201691, -0.073242, 0.026825
12, 110000.000000,-0.001160, 0.011261, -0.014130,-0.014648, -0.019318, -0.255829,0.201691, -0.073242, 0.026825
13, 120000.000000,-0.000916, 0.011993, -0.014038,-0.014648, -0.019318, -0.255829,0.201691, -0.073242, 0.026825
14, 130000.000000,-0.000916, 0.011993, -0.014038,-0.014648, -0.019318, -0.255829,0.201691, -0.073242, 0.026825
15, 140000.000000,-0.000427, 0.011322, -0.015045,-0.018463, -0.018097, -0.259430,0.204315, -0.076721, 0.028503
16, 150000.000000,-0.000427, 0.011322, -0.015045,-0.018463, -0.018097, -0.259430,0.204315, -0.076721, 0.028503
17, 160000.000000,0.000031, 0.010376, -0.014923,-0.018463, -0.018097, -0.259430,0.204315, -0.076721, 0.028503
18, 170000.000000,0.000031, 0.010376, -0.014923,-0.018463, -0.018097, -0.259430,0.204315, -0.076721, 0.028503
19, 180000.000000,0.000031, 0.010376, -0.015350,-0.018463, -0.017883, -0.254272,0.202820, -0.074860, 0.027466
20, 190000.000000,0.000275, 0.010651, -0.015350,-0.017609, -0.017883, -0.254272,0.202820, -0.074860, 0.027466
21, 200000.000000,0.000275, 0.010651, -0.015350,-0.017609, -0.017883, -0.254272,0.202820, -0.074860, 0.027466
22, 210000.000000,0.000336, 0.011230, -0.015198,-0.017609, -0.017883, -0.254272,0.202820, -0.074860, 0.027466
23, 220000.000000,0.000336, 0.011230, -0.015198,-0.017609, -0.017883, -0.254547,0.204010, -0.075256, 0.025818
24, 230000.000000,-0.000275, 0.009338, -0.016022,-0.016785, -0.018799, -0.254547,0.204010, -0.075256, 0.025818
25, 240000.000000,-0.000275, 0.009338, -0.016022,-0.016785, -0.018799, -0.254547,0.204010, -0.075256, 0.025818
26, 250000.000000,-0.000275, 0.010345, -0.016144,-0.016785, -0.018799, -0.254547,0.204010, -0.075256, 0.025818
27, 260000.000000,-0.000153, 0.010345, -0.016144,-0.016785, -0.018402, -0.252930,0.204041, -0.071960, 0.021698
28, 270000.000000,-0.000153, 0.010345, -0.014801,-0.017242, -0.018402, -0.252930,0.204041, -0.071960, 0.021698
29, 280000.000000,-0.001404, 0.010956, -0.014801,-0.017242, -0.018402, -0.252930,0.204041, -0.071960, 0.021698
30, 290000.000000,-0.001404, 0.010956, -0.014801,-0.017242, -0.018402, -0.252930,0.204041, -0.071960, 0.021698
31, 300000.000000,-0.000671, 0.011108, -0.013702,-0.017242, -0.017242, -0.252350,0.198181, -0.073395, 0.022217
32, 310000.000000,-0.000671, 0.011108, -0.013702,-0.018188, -0.017242, -0.252350,0.198181, -0.073395, 0.022217
33, 320000.000000,-0.000458, 0.010925, -0.013885,-0.018188, -0.017242, -0.252350,0.198181, -0.073395, 0.022217
34, 330000.000000,-0.000458, 0.010925, -0.013885,-0.018188, -0.017242, -0.252350,0.198181, -0.073395, 0.022217
35, 340000.000000,-0.001129, 0.011017, -0.014130,-0.018188, -0.017242, -0.251862,0.204102, -0.073700, 0.026825
36, 350000.000000,-0.001129, 0.011017, -0.014130,-0.019531, -0.018463, -0.251862,0.204102, -0.073700, 0.026825
37, 360000.000000,-0.001648, 0.011292, -0.015015,-0.019531, -0.018463, -0.251862,0.204102, -0.073700, 0.026825
38, 370000.000000,-0.001648, 0.011292, -0.015015,-0.019531, -0.018463, -0.251862,0.204102, -0.073700, 0.026825
39, 380000.000000,-0.001648, 0.011292, -0.014587,-0.019531, -0.018463, -0.251862,0.196289, -0.073853, 0.022217
40, 390000.000000,-0.001038, 0.009674, -0.014587,-0.019714, -0.017914, -0.254456,0.202118, -0.073853, 0.022217
41, 400000.000000,-0.001038, 0.009674, -0.014587,-0.019714, -0.017914, -0.254456,0.202118, -0.073853, 0.022217
42, 410000.000000,-0.000702, 0.009949, -0.014679,-0.019714, -0.017914, -0.254456,0.202118, -0.073853, 0.022217
43, 420000.000000,-0.000702, 0.009949, -0.014679,-0.019714, -0.017914, -0.254456,0.202118, -0.073853, 0.027100
44, 430000.000000,-0.001190, 0.010254, -0.013580,-0.016327, -0.018127, -0.257141,0.201111, -0.073822, 0.027100
45, 440000.000000,-0.001190, 0.010254, -0.013580,-0.016327, -0.018127, -0.257141,0.201111, -0.073822, 0.027100
46, 450000.000000,-0.000427, 0.011871, -0.013947,-0.016327, -0.018127, -0.257141,0.201111, -0.073822, 0.027100
47, 460000.000000,-0.000427, 0.011871, -0.013947,-0.016327, -0.018127, -0.257141,0.201111, -0.073822, 0.027100
48, 470000.000000,-0.000427, 0.011871, -0.013947,-0.018921, -0.018341, -0.254852,0.202759, -0.075439, 0.032715
49, 480000.000000,-0.001678, 0.009705, -0.015076,-0.018921, -0.018341, -0.254852,0.202759, -0.075439, 0.032715
50, 490000.000000,-0.001678, 0.009705, -0.015076,-0.018921, -0.018341, -0.254852,0.202759, -0.075439, 0.032715
51, 500000.000000,-0.001190, 0.010681, -0.014709,-0.018921, -0.018341, -0.254852,0.202759, -0.075439, 0.024902
52, 510000.000000,-0.001190, 0.010681, -0.014709,-0.018188, -0.017883, -0.258881,0.202881, -0.073059, 0.028259
53, 520000.000000,-0.000885, 0.010010, -0.014771,-0.018188, -0.017883, -0.258881,0.202881, -0.073059, 0.028259
54, 530000.000000,-0.000885, 0.010010, -0.014771,-0.018188, -0.017883, -0.258881,0.202881, -0.073059, 0.028259
55, 540000.000000,-0.000641, 0.010284, -0.015198,-0.018188, -0.017883, -0.258881,0.202881, -0.073059, 0.028259
56, 550000.000000,-0.000641, 0.010284, -0.015198,-0.019501, -0.018616, -0.258209,0.201691, -0.072357, 0.024139
57, 560000.000000,-0.000610, 0.010284, -0.015228,-0.019501, -0.018616, -0.258209,0.201691, -0.072357, 0.024139
58, 570000.000000,-0.000610, 0.010284, -0.015228,-0.019501, -0.018616, -0.258209,0.201691, -0.072357, 0.024139
59, 580000.000000,-0.000610, 0.010284, -0.014984,-0.019501, -0.018616, -0.258209,0.201691, -0.072357, 0.024139
60, 590000.000000,-0.000366, 0.010864, -0.014984,-0.017609, -0.016907, -0.256256,0.202606, -0.074615, 0.030975
61, 600000.000000,-0.000366, 0.010864, -0.014984,-0.017609, -0.016907, -0.256256,0.202606, -0.074615, 0.030975
62, 610000.000000,-0.000397, 0.010620, -0.015167,-0.017609, -0.016907, -0.256256,0.202606, -0.074615, 0.030975
63, 620000.000000,-0.000397, 0.010620, -0.015167,-0.017609, -0.016907, -0.256256,0.202606, -0.074615, 0.030975
64, 630000.000000,-0.001343, 0.010498, -0.015381,-0.018707, -0.017944, -0.257477,0.200592, -0.075256, 0.025085
65, 640000.000000,-0.001343, 0.010498, -0.015381,-0.018707, -0.017944, -0.257477,0.200592, -0.075256, 0.025085
66, 650000.000000,-0.000122, 0.011108, -0.014191,-0.018707, -0.017944, -0.257477,0.200592, -0.075256, 0.025085
67, 660000.000000,-0.000122, 0.011108, -0.014191,-0.018707, -0.017944, -0.257477,0.200592, -0.075256, 0.025085
68, 670000.000000,-0.000122, 0.011108, -0.014191,-0.018707, -0.019043, -0.261932,0.202972, -0.073914, 0.025848
69, 680000.000000,-0.000580, 0.010040, -0.014496,-0.016113, -0.019043, -0.261932,0.202972, -0.073914, 0.025848
70, 690000.000000,-0.000580, 0.010040, -0.014496,-0.016113, -0.019043, -0.261932,0.202972, -0.073914, 0.025848
71, 700000.000000,-0.000305, 0.010406, -0.014740,-0.016113, -0.019043, -0.261932,0.202972, -0.073914, 0.025848
72, 710000.000000,-0.000305, 0.010406, -0.014465,-0.018982, -0.019043, -0.259003,0.203705, -0.074402, 0.023773
73, 720000.000000,-0.001251, 0.010834, -0.014465,-0.018982, -0.019043, -0.259003,0.203705, -0.074402, 0.023773
74, 730000.000000,-0.001251, 0.010101, -0.014618,-0.018982, -0.019043, -0.259003,0.203705, -0.074402, 0.023773
75, 740000.000000,-0.000031, 0.010101, -0.014618,-0.018982, -0.019043, -0.259003,0.203705, -0.071899, 0.020905
76, 750000.000000,-0.000031, 0.010101, -0.014618,-0.017059, -0.018738, -0.258972,0.203827, -0.071899, 0.020905
77, 760000.000000,-0.000519, 0.010254, -0.014160,-0.017059, -0.018738, -0.258972,0.203827, -0.071899, 0.020905
78, 770000.000000,-0.000519, 0.010254, -0.014160,-0.017059, -0.018738, -0.258972,0.203827, -0.071899, 0.020905
79, 780000.000000,-0.001862, 0.011200, -0.013885,-0.017059, -0.018738, -0.258972,0.203827, -0.071899, 0.020325
80, 790000.000000,-0.001862, 0.011200, -0.013885,-0.016327, -0.017822, -0.255341,0.202454, -0.072784, 0.020325
81, 800000.000000,-0.000946, 0.011475, -0.014618,-0.016327, -0.017822, -0.255341,0.202454, -0.072784, 0.020325
82, 810000.000000,-0.000946, 0.011475, -0.014618,-0.016327, -0.017822, -0.255341,0.202454, -0.072784, 0.020325
83, 820000.000000,-0.000946, 0.011475, -0.015503,-0.016327, -0.017822, -0.255341,0.202454, -0.072784, 0.020325
84, 830000.000000,0.000244, 0.010162, -0.015503,-0.018494, -0.017883, -0.255646,0.203308, -0.075623, 0.028687
85, 840000.000000,0.000244, 0.010162, -0.015503,-0.018494, -0.017883, -0.255646,0.203308, -0.075623, 0.028687
86, 850000.000000,-0.000763, 0.011383, -0.015259,-0.018494, -0.017883, -0.255646,0.203308, -0.075623, 0.028687
87, 860000.000000,-0.000763, 0.011383, -0.015259,-0.018494, -0.017883, -0.255646,0.203308, -0.075623, 0.028687
88, 870000.000000,0.000519, 0.010834, -0.015472,-0.015839, -0.019470, -0.253387,0.197784, -0.070801, 0.031036
89, 880000.000000,0.000519, 0.010834, -0.015472,-0.015839, -0.019470, -0.253387,0.197784, -0.070801, 0.031036
90, 890000.000000,-0.000244, 0.010864, -0.014130,-0.015839, -0.019470, -0.253387,0.197784, -0.070801, 0.031036
91, 900000.000000,-0.000244, 0.010864, -0.014130,-0.015839, -0.019470, -0.253387,0.197784, -0.070801, 0.031036
92, 910000.000000,-0.000153, 0.010925, -0.014954,-0.017761, -0.018433, -0.261688,0.199402, -0.076202, 0.027191
93, 920000.000000,-0.000153, 0.010925, -0.014954,-0.017761, -0.018433, -0.261688,0.199402, -0.076202, 0.027191
94, 930000.000000,-0.000336, 0.011597, -0.014374,-0.017761, -0.018433, -0.261688,0.199402, -0.076202, 0.027191
95, 940000.000000,-0.000336, 0.011597, -0.014374,-0.017761, -0.018433, -0.256378,0.201782, -0.073547, 0.023438
96, 950000.000000,-0.000519, 0.010468, -0.015106,-0.016357, -0.018707, -0.256378,0.201782, -0.073547, 0.023438
97, 960000.000000,-0.000519, 0.010468, -0.015106,-0.016357, -0.018707, -0.256378,0.201782, -0.073547, 0.023438
98, 970000.000000,-0.001190, 0.010284, -0.015289,-0.016357, -0.018707, -0.256378,0.201782, -0.073547, 0.023438
99, 980000.000000,-0.001190, 0.010284, -0.015289,-0.016357, -0.018066, -0.253754,0.201843, -0.073547, 0.027222
100, 990000.000000,-0.001190, 0.010284, -0.015320,-0.016571, -0.018066, -0.253754,0.201843, -0.073547, 0.027222
101, 1000000.000000,-0.000641, 0.010803, -0.015320,-0.016571, -0.018066, -0.253754,0.201843, -0.073547, 0.027222
102, 1010000.000000,-0.000641, 0.010803, -0.015320,-0.016571, -0.018066, -0.253754,0.201843, -0.073547, 0.027222
103, 1020000.000000,-0.000793, 0.009979, -0.014893,-0.016571, -0.018066, -0.253754,0.199188, -0.075592, 0.026489
104, 1030000.000000,-0.000793, 0.009979, -0.014893,-0.018707, -0.018860, -0.258301,0.199188, -0.075592, 0.026489
105, 1040000.000000,0.000214, 0.009888, -0.015289,-0.018707, -0.018860, -0.258301,0.199188, -0.075592, 0.026489
106, 1050000.000000,0.000214, 0.009888, -0.015289,-0.018707, -0.018860, -0.258301,0.199188, -0.075592, 0.026489
107, 1060000.000000,0.000305, 0.011536, -0.014435,-0.018707, -0.018860, -0.258301,0.201965, -0.072510, 0.025177
108, 1070000.000000,0.000305, 0.011536, -0.014435,-0.016357, -0.017517, -0.258148,0.201965, -0.072510, 0.025177
109, 1080000.000000,0.000305, 0.009094, -0.015564,-0.016357, -0.017517, -0.258148,0.201965, -0.072510, 0.025177
110, 1090000.000000,0.000702, 0.009094, -0.015564,-0.016357, -0.017517, -0.258148,0.201965, -0.072510, 0.025177
111, 1100000.000000,0.000702, 0.009094, -0.014008,-0.016357, -0.017517, -0.258148,0.201965, -0.073303, 0.029022
112, 1110000.000000,-0.000397, 0.010376, -0.014008,-0.019012, -0.017914, -0.259033,0.204559, -0.073303, 0.029022
113, 1120000.000000,-0.000397, 0.010376, -0.014008,-0.019012, -0.017914, -0.259033,0.204559, -0.073303, 0.029022
114, 1130000.000000,-0.001160, 0.012024, -0.014587,-0.019012, -0.017914, -0.259033,0.204559, -0.073303, 0.029022
115, 1140000.000000,-0.001160, 0.012024, -0.014587,-0.019012, -0.017914, -0.259033,0.204559, -0.073944, 0.022858
116, 1150000.000000,-0.001587, 0.011078, -0.014771,-0.016541, -0.018616, -0.259644,0.201752, -0.073944, 0.022858
117, 1160000.000000,-0.001587, 0.011078, -0.014771,-0.016541, -0.018616, -0.259644,0.201752, -0.073944, 0.022858
118, 1170000.000000,-0.000641, 0.009827, -0.014496,-0.016541, -0.018616, -0.259644,0.201752, -0.073944, 0.022858
119, 1180000.000000,-0.000641, 0.009827, -0.014496,-0.016541, -0.018616, -0.259644,0.201752, -0.073944, 0.022858
120, 1190000.000000,-0.000122, 0.007507, -0.014160,-0.016418, -0.018036, -0.258636,0.204987, -0.072906, 0.023468
121, 1200000.000000,-0.000122, 0.007507, -0.014160,-0.016418, -0.018036, -0.258636,0.204987, -0.072906, 0.023468
122, 1210000.000000,-0.000122, 0.007507, -0.015381,-0.016418, -0.018036, -0.258636,0.204987, -0.072906, 0.023468
123, 1220000.000000,-0.000977, 0.008759, -0.015381,-0.016418, -0.018036, -0.258636,0.204987, -0.072906, 0.023468
124, 1230000.000000,-0.000977, 0.008759, -0.015381,-0.015076, -0.015778, -0.255981,0.202545, -0.073395, 0.033051
125, 1240000.000000,-0.000061, 0.006409, -0.014404,-0.015076, -0.015778, -0.255981,0.202545, -0.073395, 0.033051
126, 1250000.000000,-0.000061, 0.006409, -0.014404,-0.015076, -0.015778, -0.255981,0.202545, -0.073395, 0.033051
127, 1260000.000000,0.001617, 0.004395, -0.015289,-0.015076, -0.015778, -0.255981,0.202545, -0.073395, 0.033051
128, 1270000.000000,0.001617, 0.004395, -0.015289,-0.016846, -0.019379, -0.257416,0.199677, -0.074310, 0.023102
129, 1280000.000000,0.001465, 0.003937, -0.016113,-0.016846, -0.019379, -0.257416,0.199677, -0.074310, 0.023102
130, 1290000.000000,0.001465, 0.003937, -0.016113,-0.016846, -0.019379, -0.257416,0.199677, -0.074310, 0.023102
131, 1300000.000000,0.001465, 0.003937, -0.016113,-0.016846, -0.019379, -0.257416,0.199677, -0.074310, 0.023102
132, 1310000.000000,0.003113, 0.002563, -0.017059,-0.016388, -0.019043, -0.259766,0.201324, -0.073700, 0.016632
133, 1320000.000000,0.003113, 0.002563, -0.017059,-0.016388, -0.019043, -0.259766,0.201324, -0.073700, 0.016632
134, 1330000.000000,0.004333, 0.000427, -0.017487,-0.016388, -0.019043, -0.259766,0.201324, -0.073700, 0.016632
135, 1340000.000000,0.004333, 0.000427, -0.017487,-0.016388, -0.019043, -0.259766,0.201324, -0.073700, 0.016632
136, 1350000.000000,0.007324, -0.001892, -0.018036,-0.016785, -0.017517, -0.258789,0.201172, -0.073151, 0.021790
137, 1360000.000000,0.007324, -0.001892, -0.018036,-0.016785, -0.017517, -0.258789,0.201172, -0.073151, 0.021790
138, 1370000.000000,0.008209, -0.003326, -0.018616,-0.016785, -0.017517, -0.258789,0.201172, -0.073151, 0.021790
139, 1380000.000000,0.008209, -0.003326, -0.018616,-0.016785, -0.017517, -0.258789,0.201172, -0.073151, 0.021790
140, 1390000.000000,0.009277, -0.002930, -0.020752,-0.019958, -0.024475, -0.252472,0.203491, -0.072449, 0.023651
141, 1400000.000000,0.009277, -0.002930, -0.020752,-0.019958, -0.024475, -0.252472,0.203491, -0.072449, 0.023651
142, 1410000.000000,0.006134, 0.000580, -0.020447,-0.019958, -0.024475, -0.252472,0.203491, -0.072449, 0.023651
143, 1420000.000000,0.006134, 0.000580, -0.020447,-0.019958, -0.024475, -0.252472,0.203491, -0.072449, 0.023651
144, 1430000.000000,0.006134, 0.000580, -0.020447,-0.022644, -0.017151, -0.249207,0.198547, -0.071716, 0.025146
145, 1440000.000000,0.005249, 0.002960, -0.021576,-0.022644, -0.017151, -0.249207,0.198547, -0.071716, 0.025146
146, 1450000.000000,0.005249, 0.002960, -0.021576,-0.022644, -0.017151, -0.249207,0.198547, -0.071716, 0.025146
147, 1460000.000000,0.004089, 0.007263, -0.019928,-0.022644, -0.017151, -0.249207,0.198547, -0.071716, 0.025146
148, 1470000.000000,0.004089, 0.007263, -0.019928,-0.014893, -0.016388, -0.255554,0.202515, -0.076050, 0.020782
149, 1480000.000000,0.004578, 0.005554, -0.017578,-0.014893, -0.016388, -0.255554,0.202515, -0.076050, 0.020782
150, 1490000.000000,0.004578, 0.005554, -0.017578,-0.014893, -0.016388, -0.255554,0.202515, -0.076050, 0.020782
151, 1500000.000000,0.004578, 0.005554, -0.017578,-0.014893, -0.016388, -0.255554,0.202515, -0.076050, 0.020782
152, 1510000.000000,0.005188, 0.002899, -0.016479,-0.014893, -0.016388, -0.255554,0.202515, -0.076050, 0.020386
153, 1520000.000000,0.005188, 0.002899, -0.016479,-0.018860, -0.020203, -0.251404,0.200562, -0.072052, 0.020386
154, 1530000.000000,0.001373, 0.002777, -0.016571,-0.018860, -0.020203, -0.251404,0.200562, -0.072052, 0.020386
155, 1540000.000000,0.001373, 0.002777, -0.016571,-0.018860, -0.020203, -0.251404,0.200562, -0.072052, 0.020386
156, 1550000.000000,0.000854, 0.005188, -0.019012,-0.021790, -0.018250, -0.257294,0.200775, -0.072876, 0.022675
157, 1560000.000000,0.000854, 0.005188, -0.019012,-0.021790, -0.018250, -0.257294,0.200775, -0.072876, 0.022675
158, 1570000.000000,0.001404, 0.009338, -0.018555,-0.021790, -0.018250, -0.257294,0.200775, -0.072876, 0.022675
159, 1580000.000000,0.001404, 0.009338, -0.018555,-0.021790, -0.018250, -0.257294,0.200775, -0.072876, 0.022675
160, 1590000.000000,0.001404, 0.009338, -0.019073,-0.021790, -0.018250, -0.257294,0.200775, -0.072876, 0.030487
161, 1600000.000000,0.000427, 0.016174, -0.019073,-0.022675, -0.018005, -0.250122,0.204407, -0.074493, 0.025696
162, 1610000.000000,0.000427, 0.016174, -0.019073,-0.022675, -0.018005, -0.250122,0.204407, -0.074493, 0.025696
163, 1620000.000000,-0.000702, 0.024109, -0.020477,-0.022675, -0.018005, -0.250122,0.204407, -0.074493, 0.025696
164, 1630000.000000,-0.000702, 0.024109, -0.020477,-0.022675, -0.018005, -0.250122,0.204407, -0.074493, 0.025696
165, 1640000.000000,-0.000702, 0.031921, -0.021606,-0.018127, -0.028290, -0.256653,0.203857, -0.071991, 0.024841
166, 1650000.000000,-0.002930, 0.035828, -0.021606,-0.018127, -0.028290, -0.256653,0.203857, -0.071991, 0.024841
167, 1660000.000000,-0.002930, 0.035828, -0.021606,-0.018127, -0.028290, -0.256653,0.203857, -0.071991, 0.024841
168, 1670000.000000,-0.010590, 0.033813, -0.028076,-0.018127, -0.028290, -0.256653,0.203857, -0.071991, 0.024841
169, 1680000.000000,-0.010590, 0.033813, -0.028076,-0.018127, -0.028290, -0.256653,0.203857, -0.071991, 0.024841
170, 1690000.000000,-0.010590, 0.053955, -0.055878,-0.098053, 0.058594, -0.170715,0.206207, -0.073883, 0.021454
171, 1700000.000000,-0.010742, 0.053955, -0.055878,-0.098053, 0.058594, -0.170715,0.206207, -0.073883, 0.021454
172, 1710000.000000,-0.010742, 0.053955, -0.055878,-0.098053, 0.058594, -0.170715,0.206207, -0.073883, 0.021454
173, 1720000.000000,0.036682, 0.187927, -0.093933,-0.098053, 0.058594, -0.170715,0.206207, -0.073883, 0.021454
174, 1730000.000000,0.036682, 0.187927, -0.093933,-0.098053, -0.014282, -0.260956,0.209686, -0.071350, 0.021637
175, 1740000.000000,0.052307, 0.297302, -0.115967,-0.073761, -0.014282, -0.260956,0.209686, -0.071350, 0.021637
176, 1750000.000000,0.052094, 0.297302, -0.115967,-0.073761, -0.014282, -0.260956,0.209686, -0.071350, 0.021637
177, 1760000.000000,0.052094, 0.297302, -0.115967,-0.073761, -0.014282, -0.260956,0.209686, -0.071350, 0.021637
178, 1770000.000000,0.087189, 0.339386, -0.147705,-0.073761, -0.014282, -0.260956,0.209686, -0.071350, 0.021637
179, 1780000.000000,0.087189, 0.339386, -0.147705,-0.062256, -0.006317, -0.265900,0.211761, -0.069031, 0.019775
180, 1790000.000000,0.105530, 0.346069, -0.177856,-0.062256, -0.006317, -0.265900,0.211761, -0.069031, 0.019775
181, 1800000.000000,0.105530, 0.346069, -0.177856,-0.062256, -0.006317, -0.265900,0.211761, -0.069031, 0.019775
182, 1810000.000000,0.117371, 0.396515, -0.214691,-0.062256, -0.006317, -0.265900,0.211761, -0.069031, 0.019775
183, 1820000.000000,0.117371, 0.396515, -0.214691,-0.136719, 0.025848, -0.300293,0.219177, -0.069397, 0.009521
184, 1830000.000000,0.117371, 0.396515, -0.214691,-0.136719, 0.025848, -0.300293,0.219177, -0.069397, 0.009521
185, 1840000.000000,0.163757, 0.407715, -0.253571,-0.136719, 0.025848, -0.300293,0.219177, -0.069397, 0.009521
186, 1850000.000000,0.163757, 0.407715, -0.253571,-0.136719, 0.025848, -0.300293,0.219177, -0.069397, 0.009521
187, 1860000.000000,0.147125, 0.400177, -0.261597,-0.136719, 0.025848, -0.470459,0.228638, -0.066284, 0.000031
188, 1870000.000000,0.147125, 0.400177, -0.261597,-0.171295, -0.085510, -0.470459,0.228638, -0.066284, 0.000031
189, 1880000.000000,0.147125, 0.400177, -0.261597,-0.171295, -0.085510, -0.470459,0.228638, -0.066284, 0.000031
190, 1890000.000000,0.058990, 0.304596, -0.235779,-0.171295, -0.085510, -0.470459,0.228638, -0.066284, 0.000031
191, 1900000.000000,0.058990, 0.304596, -0.235779,-0.171295, -0.085510, -0.470459,0.228638, -0.066284, 0.000031
192, 1910000.000000,-0.011322, 0.185486, -0.188904,-0.244720, -0.108246, -0.363342,0.233307, -0.069122, 0.017639
193, 1920000.000000,-0.011322, 0.185486, -0.188904,-0.244720, -0.108246, -0.363342,0.233307, -0.069122, 0.017639
194, 1930000.000000,-0.011322, 0.185486, -0.188904,-0.244720, -0.108246, -0.363342,0.233307, -0.069122, 0.017639
195, 1940000.000000,-0.050690, 0.107574, -0.140564,-0.244720, -0.108246, -0.363342,0.233307, -0.069122, 0.017639
196, 1950000.000000,-0.050690, 0.107574, -0.140564,-0.244720, -0.108246, -0.363342,0.248932, -0.071625, 0.025879
197, 1960000.000000,-0.046661, 0.058868, -0.100250,-0.244019, -0.061920, -0.252411,0.245514, -0.071625, 0.025879
198, 1970000.000000,-0.046661, 0.058868, -0.100250,-0.244019, -0.061920, -0.252411,0.245514, -0.071625, 0.025879
199, 1980000.000000,-0.046661, 0.058868, -0.065155,-0.244019, -0.061920, -0.252411,0.245514, -0.071625, 0.025879
200, 1990000.000000,-0.019836, 0.016418, -0.065155,-0.244019, -0.061920, -0.252411,0.245514, -0.079285, 0.037994
201, 2000000.000000,-0.019836, 0.016418, -0.033905,-0.226105, -0.045990, -0.261566,0.248169, -0.079285, 0.037994
202, 2010000.000000,0.001709, -0.028442, -0.032410,-0.226105, -0.045990, -0.261566,0.248169, -0.079285, 0.037994
203, 2020000.000000,0.001709, -0.028442, -0.032410,-0.226105, -0.045990, -0.261566,0.248169, -0.079285, 0.037994
204, 2030000.000000,0.010315, -0.076141, -0.000824,-0.226105, -0.045990, -0.261566,0.248169, -0.079285, 0.057892
205, 2040000.000000,0.010315, -0.076141, -0.000824,-0.198090, -0.037842, -0.262054,0.263824, -0.087799, 0.057892
206, 2050000.000000,0.004089, -0.122589, 0.030945,-0.198090, -0.037842, -0.262054,0.263824, -0.087799, 0.057892
207, 2060000.000000,0.004089, -0.122589, 0.030945,-0.198090, -0.037842, -0.262054,0.263824, -0.087799, 0.057892
208, 2070000.000000,-0.006256, -0.158447, 0.059021,-0.198090, -0.037842, -0.262054,0.263824, -0.087799, 0.079498
209, 2080000.000000,-0.006256, -0.158447, 0.059021,-0.161621, -0.011383, -0.257874,0.275818, -0.097900, 0.079498
210, 2090000.000000,-0.014069, -0.188141, 0.079346,-0.161621, -0.011383, -0.257874,0.275818, -0.097900, 0.079498
211, 2100000.000000,-0.015045, -0.188141, 0.079346,-0.161621, -0.011383, -0.257874,0.275818, -0.097900, 0.079498
212, 2110000.000000,-0.015045, -0.188141, 0.090424,-0.161621, -0.011383, -0.257874,0.275818, -0.097900, 0.079498
213, 2120000.000000,-0.026703, -0.215942, 0.090424,-0.131378, 0.014923, -0.287872,0.279785, -0.111420, 0.106293
214, 2130000.000000,-0.026703, -0.215942, 0.090424,-0.131378, 0.014923, -0.287872,0.279785, -0.111420, 0.106293
215, 2140000.000000,-0.031708, -0.241852, 0.092865,-0.131378, 0.014923, -0.287872,0.279785, -0.111420, 0.106293
216, 2150000.000000,-0.031708, -0.241852, 0.092865,-0.131378, 0.014923, -0.287872,0.279785, -0.125549, 0.142639
217, 2160000.000000,-0.036255, -0.276825, 0.090271,-0.102386, 0.025055, -0.315002,0.281006, -0.125549, 0.142639
218, 2170000.000000,-0.036255, -0.276825, 0.090271,-0.102386, 0.025055, -0.315002,0.281006, -0.125549, 0.142639
219, 2180000.000000,-0.034302, -0.313385, 0.083344,-0.102386, 0.025055, -0.315002,0.281006, -0.125549, 0.142639
220, 2190000.000000,-0.034302, -0.313385, 0.083344,-0.102386, 0.025055, -0.280701,0.283417, -0.138397, 0.183472
221, 2200000.000000,-0.032715, -0.343231, 0.077667,-0.076263, 0.014282, -0.280701,0.283417, -0.138397, 0.183472
222, 2210000.000000,-0.032715, -0.343231, 0.077667,-0.076263, 0.014282, -0.280701,0.283417, -0.138397, 0.183472
223, 2220000.000000,-0.034485, -0.353516, 0.072174,-0.076263, 0.014282, -0.280701,0.283417, -0.138397, 0.183472
224, 2230000.000000,-0.034485, -0.353516, 0.072174,-0.076263, 0.014282, -0.280701,0.283417, -0.138397, 0.225006
225, 2240000.000000,-0.034485, -0.353516, 0.064362,-0.057434, -0.000946, -0.221619,0.267914, -0.150635, 0.225006
226, 2250000.000000,-0.035126, -0.333771, 0.068298,-0.057434, -0.000946, -0.221619,0.267914, -0.150635, 0.225006
227, 2260000.000000,-0.035126, -0.333771, 0.068298,-0.057434, -0.000946, -0.221619,0.267914, -0.150635, 0.225006
228, 2270000.000000,-0.036102, -0.303101, 0.068878,-0.057434, -0.000946, -0.221619,0.267914, -0.150635, 0.225006
229, 2280000.000000,-0.036102, -0.303101, 0.068878,-0.031982, -0.025330, -0.261963,0.254150, -0.162231, 0.264252
230, 2290000.000000,-0.036102, -0.279663, 0.072937,-0.031982, -0.025330, -0.261963,0.254150, -0.162231, 0.264252
231, 2300000.000000,-0.047638, -0.278320, 0.072937,-0.031982, -0.025330, -0.261963,0.254150, -0.162231, 0.264252
232, 2310000.000000,-0.047638, -0.278320, 0.072937,-0.031982, -0.025330, -0.261963,0.254150, -0.162231, 0.264252
233, 2320000.000000,-0.052490, -0.269623, 0.076813,-0.031982, -0.025330, -0.261963,0.254150, -0.170044, 0.294312
234, 2330000.000000,-0.052490, -0.269623, 0.076813,-0.006165, -0.033905, -0.340302,0.232758, -0.171265, 0.294312
235, 2340000.000000,-0.052490, -0.285583, 0.080811,-0.006165, -0.033905, -0.340302,0.232758, -0.171265, 0.294312
236, 2350000.000000,-0.046234, -0.285583, 0.080811,-0.006165, -0.033905, -0.340302,0.232758, -0.171265, 0.294312
237, 2360000.000000,-0.046234, -0.285583, 0.080811,-0.006165, -0.033905, -0.340302,0.232758, -0.171265, 0.294312
238, 2370000.000000,-0.037231, -0.314789, 0.084808,0.014069, -0.044220, -0.354095,0.198212, -0.177307, 0.323334
239, 2380000.000000,-0.037231, -0.314789, 0.084808,0.014069, -0.044220, -0.354095,0.198212, -0.177307, 0.323334
240, 2390000.000000,-0.047974, -0.341370, 0.091064,0.014069, -0.044220, -0.354095,0.198212, -0.177307, 0.323334
241, 2400000.000000,-0.047974, -0.341370, 0.091064,0.014069, -0.044220, -0.354095,0.198212, -0.177307, 0.323334
242, 2410000.000000,-0.047974, -0.341370, 0.091064,0.014069, -0.044220, -0.354095,0.198212, -0.177307, 0.341858
243, 2420000.000000,-0.078796, -0.356689, 0.091766,0.036346, -0.039520, -0.350250,0.159363, -0.177979, 0.341858
244, 2430000.000000,-0.078796, -0.356689, 0.091766,0.036346, -0.039520, -0.350250,0.159363, -0.177979, 0.341858
245, 2440000.000000,-0.099091, -0.367188, 0.084381,0.036346, -0.039520, -0.350250,0.159363, -0.177979, 0.341858
246, 2450000.000000,-0.099091, -0.367188, 0.084381,0.036346, -0.039520, -0.350250,0.159363, -0.177979, 0.341858
247, 2460000.000000,-0.090820, -0.384430, 0.071106,0.064575, -0.025146, -0.352509,0.115601, -0.171204, 0.355499
248, 2470000.000000,-0.090820, -0.384430, 0.071106,0.064575, -0.025146, -0.352509,0.115601, -0.171204, 0.355499
249, 2480000.000000,-0.090820, -0.384430, 0.071106,0.064575, -0.025146, -0.352509,0.115601, -0.171204, 0.355499
250, 2490000.000000,-0.047150, -0.402985, 0.054596,0.064575, -0.025146, -0.352509,0.115601, -0.171204, 0.355499
251, 2500000.000000,-0.047150, -0.402985, 0.037659,0.103485, -0.023926, -0.317993,0.075653, -0.168304, 0.352692
252, 2510000.000000,0.010803, -0.420410, 0.037659,0.103485, -0.023926, -0.317993,0.075653, -0.168304, 0.352692
253, 2520000.000000,0.010803, -0.420410, 0.037659,0.103485, -0.023926, -0.317993,0.075653, -0.168304, 0.352692
254, 2530000.000000,0.054169, -0.423737, 0.016113,0.103485, -0.023926, -0.317993,0.075653, -0.168304, 0.352692
255, 2540000.000000,0.054169, -0.423737, 0.016113,0.157135, -0.016907, -0.246368,0.036865, -0.162079, 0.343140
256, 2550000.000000,0.084930, -0.411041, -0.011658,0.157135, -0.016907, -0.246368,0.036865, -0.162079, 0.343140
257, 2560000.000000,0.084930, -0.411041, -0.011658,0.157135, -0.016907, -0.246368,0.036865, -0.162079, 0.343140
258, 2570000.000000,0.114349, -0.397675, -0.043793,0.157135, -0.016907, -0.246368,0.036865, -0.162079, 0.343140
259, 2580000.000000,0.114349, -0.397675, -0.043793,0.244141, -0.010620, -0.206421,0.002869, -0.159393, 0.323822
260, 2590000.000000,0.114349, -0.389862, -0.073761,0.244141, -0.010620, -0.206421,0.002869, -0.159393, 0.323822
261, 2600000.000000,0.140808, -0.384644, -0.073761,0.244141, -0.010620, -0.206421,0.002869, -0.159393, 0.323822
262, 2610000.000000,0.140808, -0.384644, -0.073761,0.244141, -0.010620, -0.206421,0.002869, -0.159393, 0.323822
263, 2620000.000000,0.144287, -0.360229, -0.096710,0.343201, -0.056549, -0.079834,-0.023132, -0.160339, 0.309448
264, 2630000.000000,0.144287, -0.360229, -0.096710,0.343201, -0.056549, -0.079834,-0.023132, -0.160339, 0.309448
265, 2640000.000000,0.111420, -0.292236, -0.101349,0.343201, -0.056549, -0.079834,-0.023132, -0.160339, 0.309448
266, 2650000.000000,0.111420, -0.292236, -0.101349,0.343201, -0.056549, -0.079834,-0.023132, -0.160339, 0.309448
267, 2660000.000000,0.093353, 0.050110, -0.085663,0.404724, -0.101105, 0.244751,-0.029572, -0.166168, 0.311859
268, 2670000.000000,0.093353, 0.050110, -0.085663,0.404724, -0.101105, 0.244751,-0.029572, -0.166168, 0.311859
269, 2680000.000000,0.026672, 0.344391, -0.073669,0.404724, -0.101105, 0.244751,-0.029572, -0.166168, 0.311859
270, 2690000.000000,0.026672, 0.344391, -0.073669,0.404724, -0.101105, 0.244751,-0.029572, -0.166168, 0.311859
271, 2700000.000000,-0.003876, 0.449860, -0.062225,-0.072296, -0.153625, -0.126007,-0.017670, -0.177704, 0.337280
272, 2710000.000000,-0.003876, 0.449860, -0.062225,-0.072296, -0.153625, -0.126007,-0.017670, -0.177704, 0.337280
273, 2720000.000000,-0.003876, 0.449860, -0.062225,-0.072296, -0.153625, -0.126007,-0.017670, -0.177704, 0.337280
274, 2730000.000000,-0.061493, 0.462463, -0.027100,-0.072296, -0.153625, -0.126007,-0.017670, -0.177704, 0.337280
275, 2740000.000000,-0.061493, 0.462463, -0.027100,-0.005249, -0.101257, -0.273804,-0.007965, -0.185150, 0.354309
276, 2750000.000000,-0.026886, 0.572144, 0.020142,-0.005249, -0.101257, -0.273804,-0.007965, -0.185150, 0.354309
277, 2760000.000000,-0.026886, 0.572144, 0.020142,-0.005249, -0.101257, -0.273804,-0.007965, -0.185150, 0.354309
278, 2770000.000000,-0.012878, 0.537292, 0.057556,-0.005249, -0.101257, -0.273804,-0.007965, -0.185150, 0.354309
279, 2780000.000000,-0.012878, 0.537292, 0.057556,0.011566, -0.004974, -0.463409,0.003815, -0.196075, 0.378693
280, 2790000.000000,-0.061218, 0.515503, 0.067505,0.011566, -0.004974, -0.463409,0.003815, -0.196075, 0.378693
281, 2800000.000000,-0.061218, 0.515503, 0.067505,0.011566, -0.004974, -0.463409,0.003815, -0.196075, 0.378693
282, 2810000.000000,-0.061218, 0.413940, 0.053131,0.011566, -0.004974, -0.463409,0.003815, -0.196075, 0.378693
283, 2820000.000000,-0.077271, 0.410309, 0.053131,-0.001587, 0.124878, -0.388245,0.013702, -0.203644, 0.384552
284, 2830000.000000,-0.077271, 0.410309, 0.053131,-0.001587, 0.124878, -0.388245,0.013702, -0.203644, 0.384552
285, 2840000.000000,-0.037170, 0.333771, 0.010895,-0.001587, 0.124878, -0.388245,0.013702, -0.203644, 0.384552
286, 2850000.000000,-0.037170, 0.333771, 0.010895,-0.001587, 0.124878, -0.388245,0.013702, -0.203644, 0.384552
287, 2860000.000000,0.019989, 0.343964, -0.042236,-0.004181, 0.053101, -0.351044,0.027191, -0.210480, 0.400970
288, 2870000.000000,0.019989, 0.343964, -0.042236,-0.004181, 0.053101, -0.351044,0.027191, -0.210480, 0.400970
289, 2880000.000000,0.068359, 0.333771, -0.073639,-0.004181, 0.053101, -0.351044,0.027191, -0.210480, 0.400970
290, 2890000.000000,0.068359, 0.333771, -0.073639,-0.004181, 0.053101, -0.351044,0.027191, -0.210480, 0.400970
291, 2900000.000000,0.099976, 0.303009, -0.080475,0.011444, -0.044037, -0.400726,0.035553, -0.219330, 0.416779
292, 2910000.000000,0.099976, 0.303009, -0.080475,0.011078, -0.044037, -0.400726,0.035553, -0.219330, 0.416779
293, 2920000.000000,0.099976, 0.303009, -0.080475,0.011078, -0.044037, -0.400726,0.035553, -0.219330, 0.416779
294, 2930000.000000,0.113037, 0.251617, -0.076782,0.011078, -0.044037, -0.400726,0.035553, -0.219330, 0.416779
295, 2940000.000000,0.113037, 0.251617, -0.076782,0.011078, -0.114349, -0.323517,0.042328, -0.227905, 0.417480
296, 2950000.000000,0.107849, 0.207153, -0.061981,-0.006531, -0.113007, -0.323517,0.042328, -0.227905, 0.417480
297, 2960000.000000,0.107849, 0.207153, -0.061981,-0.006531, -0.113007, -0.323517,0.042328, -0.227905, 0.417480
298, 2970000.000000,0.080383, 0.177460, -0.045532,-0.006531, -0.113007, -0.323517,0.042328, -0.227905, 0.417480
299, 2980000.000000,0.080383, 0.177460, -0.045532,-0.006531, -0.113007, -0.323517,0.050140, -0.231537, 0.422058
300, 2990000.000000,0.061066, 0.161377, -0.039124,-0.061646, -0.092224, -0.326111,0.050385, -0.231537, 0.422058
301, 3000000.000000,0.061066, 0.161377, -0.039124,-0.061646, -0.092224, -0.326111,0.050385, -0.231537, 0.422058
302, 3010000.000000,0.061066, 0.161377, -0.014191,-0.061646, -0.092224, -0.326111,0.050385, -0.231537, 0.422058
303, 3020000.000000,-0.017242, 0.107452, -0.014191,-0.061646, -0.092224, -0.326111,0.050385, -0.231537, 0.421295
304, 3030000.000000,-0.017242, 0.107452, -0.014191,-0.038940, 0.021759, -0.247864,0.053925, -0.232239, 0.421295
305, 3040000.000000,-0.023682, 0.047729, -0.015503,-0.038940, 0.021759, -0.247864,0.053925, -0.232239, 0.421295
306, 3050000.000000,0.007568, 0.043457, -0.022491,-0.038940, 0.021759, -0.247864,0.053925, -0.232239, 0.421295
307, 3060000.000000,0.004883, 0.043457, -0.022491,-0.012573, -0.033630, -0.277405,0.055298, -0.235596, 0.431183
308, 3070000.000000,0.004883, 0.043457, -0.022491,-0.012573, -0.033630, -0.277405,0.055298, -0.235596, 0.431183
309, 3080000.000000,0.011230, 0.017120, -0.023041,-0.012573, -0.033630, -0.277405,0.055298, -0.235596, 0.431183
310, 3090000.000000,0.011230, 0.017120, -0.023041,-0.012573, -0.033630, -0.277405,0.055298, -0.235596, 0.431183
311, 3100000.000000,0.027710, 0.008331, -0.025635,-0.012573, -0.018005, -0.282257,0.055206, -0.236053, 0.422211
312, 3110000.000000,0.027710, 0.008331, -0.025635,-0.017181, -0.018005, -0.282257,0.055206, -0.236053, 0.422211
313, 3120000.000000,0.047546, -0.004059, -0.030090,-0.017181, -0.018005, -0.282257,0.055206, -0.236053, 0.422211
314, 3130000.000000,0.047546, -0.004059, -0.030090,-0.017181, -0.018005, -0.282257,0.055206, -0.236053, 0.422211
315, 3140000.000000,0.047546, -0.004059, -0.032410,-0.017181, -0.018005, -0.282257,0.056610, -0.238617, 0.422150
316, 3150000.000000,0.068054, -0.013062, -0.032410,-0.020233, -0.013184, -0.286682,0.056610, -0.238617, 0.422150
317, 3160000.000000,0.068054, -0.013062, -0.032410,-0.020233, -0.013184, -0.286682,0.056610, -0.238617, 0.422150
318, 3170000.000000,0.095062, -0.025116, -0.035370,-0.020233, -0.013184, -0.286682,0.056610, -0.238617, 0.422150
319, 3180000.000000,0.095062, -0.025116, -0.035370,-0.020233, -0.013184, -0.286682,0.056610, -0.238617, 0.419159
320, 3190000.000000,0.113495, -0.035889, -0.038818,-0.023956, -0.014465, -0.274078,0.053375, -0.241974, 0.419159
321, 3200000.000000,0.113495, -0.035889, -0.038818,-0.023956, -0.014465, -0.274078,0.053375, -0.241974, 0.419159
322, 3210000.000000,0.130341, -0.045868, -0.040955,-0.023956, -0.014465, -0.274078,0.053375, -0.241974, 0.419159
323, 3220000.000000,0.130341, -0.045868, -0.040955,-0.023956, -0.014465, -0.274078,0.053375, -0.241974, 0.412781
324, 3230000.000000,0.130341, -0.049530, -0.041718,-0.026062, -0.036072, -0.258850,0.052246, -0.246307, 0.412781
325, 3240000.000000,0.144928, -0.049530, -0.041718,-0.026062, -0.036072, -0.258850,0.052246, -0.246307, 0.412781
326, 3250000.000000,0.144928, -0.049530, -0.043182,-0.026062, -0.036072, -0.258850,0.052246, -0.246307, 0.412781
327, 3260000.000000,0.154175, -0.053436, -0.043182,-0.026062, -0.036072, -0.235413,0.052246, -0.252533, 0.399292
328, 3270000.000000,0.154175, -0.053436, -0.043182,-0.033569, -0.046448, -0.236908,0.053009, -0.252533, 0.399292
329, 3280000.000000,0.156342, -0.050598, -0.044281,-0.033569, -0.046448, -0.236908,0.053009, -0.252533, 0.399292
330, 3290000.000000,0.156342, -0.050598, -0.044281,-0.033569, -0.046448, -0.236908,0.053009, -0.252533, 0.399292
331, 3300000.000000,0.155334, -0.038666, -0.044434,-0.033569, -0.046448, -0.236908,0.053009, -0.255920, 0.400146
332, 3310000.000000,0.155334, -0.038666, -0.044434,-0.030823, -0.038727, -0.255859,0.050415, -0.255920, 0.400146
333, 3320000.000000,0.159485, -0.032990, -0.043365,-0.030823, -0.038727, -0.255859,0.050415, -0.255920, 0.400146
334, 3330000.000000,0.159485, -0.032990, -0.043365,-0.030823, -0.038727, -0.255859,0.050415, -0.255920, 0.400146
335, 3340000.000000,0.159302, -0.029663, -0.041809,-0.030823, -0.038727, -0.255859,0.050415, -0.255920, 0.395508
336, 3350000.000000,0.159302, -0.029663, -0.041809,-0.034210, -0.059814, -0.240662,0.050354, -0.258728, 0.395508
337, 3360000.000000,0.159302, -0.029663, -0.038788,-0.034210, -0.059814, -0.240662,0.050354, -0.258728, 0.395508
338, 3370000.000000,0.149872, -0.023407, -0.038788,-0.034210, -0.059814, -0.240662,0.050354, -0.258728, 0.395508
339, 3380000.000000,0.149872, -0.023407, -0.038788,-0.034210, -0.059814, -0.240662,0.050354, -0.258728, 0.395508
340, 3390000.000000,0.125092, -0.015778, -0.033722,-0.039246, -0.068817, -0.225189,0.047638, -0.265381, 0.385406
341, 3400000.000000,0.125092, -0.015778, -0.033722,-0.039246, -0.068817, -0.225189,0.047638, -0.265381, 0.385406
342, 3410000.000000,0.097015, -0.007904, -0.028168,-0.039246, -0.068817, -0.225189,0.047638, -0.265381, 0.385406
343, 3420000.000000,0.097015, -0.007904, -0.028168,-0.039246, -0.068817, -0.225189,0.047638, -0.265381, 0.385406
344, 3430000.000000,0.097015, -0.007904, -0.025146,-0.041199, -0.066803, -0.225037,0.048767, -0.267548, 0.380676
345, 3440000.000000,0.073273, 0.005310, -0.025146,-0.041199, -0.066803, -0.225037,0.048767, -0.267548, 0.380676
346, 3450000.000000,0.073273, 0.005310, -0.025146,-0.041199, -0.066803, -0.225037,0.048767, -0.267548, 0.380676
347, 3460000.000000,0.053711, 0.014893, -0.019836,-0.041199, -0.066803, -0.225037,0.048767, -0.267548, 0.380676
348, 3470000.000000,0.053711, 0.014893, -0.012024,-0.040771, -0.061401, -0.218994,0.043884, -0.268188, 0.385132
349, 3480000.000000,0.036194, 0.023834, -0.013489,-0.040771, -0.061401, -0.218994,0.043884, -0.268188, 0.385132
350, 3490000.000000,0.036194, 0.023834, -0.013489,-0.040771, -0.061401, -0.218994,0.043884, -0.268188, 0.385132
351, 3500000.000000,0.016876, 0.038055, -0.009186,-0.040771, -0.061401, -0.218994,0.043884, -0.268188, 0.385132
352, 3510000.000000,0.016876, 0.038055, -0.009186,-0.037354, -0.069244, -0.226501,0.044189, -0.267151, 0.385559
353, 3520000.000000,-0.006989, 0.050262, -0.003662,-0.037354, -0.069244, -0.226501,0.044189, -0.267151, 0.385559
354, 3530000.000000,-0.006989, 0.050262, -0.003662,-0.037354, -0.069244, -0.226501,0.044189, -0.267151, 0.385559
355, 3540000.000000,-0.028748, 0.052673, 0.001495,-0.037354, -0.069244, -0.226501,0.044189, -0.267151, 0.385559
356, 3550000.000000,-0.028748, 0.052673, 0.001495,-0.033539, -0.061096, -0.229706,0.050262, -0.269043, 0.395691
357, 3560000.000000,-0.044556, 0.055573, 0.005981,-0.033539, -0.061096, -0.229706,0.050262, -0.269043, 0.395691
358, 3570000.000000,-0.044556, 0.055573, 0.005981,-0.033539, -0.061096, -0.229706,0.050262, -0.269043, 0.395691
359, 3580000.000000,-0.044556, 0.055573, 0.010834,-0.033539, -0.061096, -0.229706,0.050262, -0.269043, 0.395691
360, 3590000.000000,-0.058929, 0.054932, 0.010834,-0.028870, -0.066010, -0.240906,0.052490, -0.269196, 0.388153
361, 3600000.000000,-0.058929, 0.054932, 0.010834,-0.028870, -0.066010, -0.240906,0.052490, -0.269196, 0.388153
362, 3610000.000000,-0.081055, 0.048798, 0.018005,-0.028870, -0.066010, -0.240906,0.052490, -0.269196, 0.388153
363, 3620000.000000,-0.081055, 0.048798, 0.018005,-0.028870, -0.066010, -0.240906,0.052490, -0.269196, 0.388153
364, 3630000.000000,-0.110718, 0.043976, 0.025757,-0.029297, -0.056610, -0.246490,0.042419, -0.265991, 0.400543
365, 3640000.000000,-0.110718, 0.043976, 0.025757,-0.029297, -0.056610, -0.246490,0.042419, -0.265991, 0.400543
366, 3650000.000000,-0.128143, 0.042511, 0.027924,-0.029297, -0.056610, -0.246490,0.042419, -0.265991, 0.400543
367, 3660000.000000,-0.128143, 0.042511, 0.027924,-0.029297, -0.056610, -0.246490,0.042419, -0.265991, 0.400543
368, 3670000.000000,-0.132324, 0.046082, 0.025208,-0.027710, -0.050873, -0.251251,0.048798, -0.264130, 0.402832
369, 3680000.000000,-0.132324, 0.046082, 0.025208,-0.027710, -0.050873, -0.251251,0.048798, -0.264130, 0.402832
370, 3690000.000000,-0.132324, 0.046082, 0.025208,-0.027710, -0.050873, -0.251251,0.048798, -0.264130, 0.402832
371, 3700000.000000,-0.138641, 0.050690, 0.022278,-0.027710, -0.050873, -0.251251,0.048798, -0.264130, 0.402832
372, 3710000.000000,-0.138641, 0.050690, 0.022278,-0.035522, -0.047089, -0.237244,0.051422, -0.258179, 0.404724
373, 3720000.000000,-0.145721, 0.062988, 0.019287,-0.032257, -0.047089, -0.237244,0.051422, -0.258179, 0.404724
374, 3730000.000000,-0.145721, 0.062988, 0.019287,-0.032257, -0.047089, -0.237244,0.051422, -0.258179, 0.404724
375, 3740000.000000,-0.151215, 0.073914, 0.014709,-0.032257, -0.047089, -0.237244,0.051422, -0.258179, 0.404724
376, 3750000.000000,-0.151215, 0.073914, 0.014709,-0.024597, -0.043457, -0.254913,0.054291, -0.254211, 0.420685
377, 3760000.000000,-0.159424, 0.080475, 0.013275,-0.024597, -0.043457, -0.254913,0.054291, -0.254211, 0.420685
378, 3770000.000000,-0.159424, 0.080475, 0.013275,-0.024597, -0.043457, -0.254913,0.054291, -0.254211, 0.420685
379, 3780000.000000,-0.159424, 0.066467, 0.009216,-0.024597, -0.043457, -0.254913,0.054291, -0.254211, 0.420685
380, 3790000.000000,-0.145081, 0.066467, 0.009216,-0.016785, -0.027466, -0.271729,0.054749, -0.251251, 0.418274
381, 3800000.000000,-0.145081, 0.066467, 0.009216,-0.020203, -0.027466, -0.271729,0.054749, -0.251251, 0.418274
382, 3810000.000000,-0.096313, 0.041473, -0.001984,-0.020203, -0.027466, -0.271729,0.054749, -0.251251, 0.418274
383, 3820000.000000,-0.096313, 0.041473, -0.001984,-0.020203, -0.027466, -0.271729,0.054749, -0.251251, 0.418274
384, 3830000.000000,-0.077850, 0.037750, -0.006073,-0.020203, -0.027466, -0.263062,0.058167, -0.248260, 0.426575
385, 3840000.000000,-0.077850, 0.037750, -0.006073,-0.018890, -0.028564, -0.263062,0.058167, -0.248260, 0.426575
386, 3850000.000000,-0.061310, 0.028412, -0.007324,-0.018890, -0.028564, -0.263062,0.058167, -0.248260, 0.426575
387, 3860000.000000,-0.061310, 0.028412, -0.007324,-0.018890, -0.028564, -0.263062,0.058167, -0.248260, 0.426575
388, 3870000.000000,-0.072266, 0.031830, -0.005035,-0.026703, -0.035736, -0.238159,0.057800, -0.247314, 0.427216
389, 3880000.000000,-0.072266, 0.031830, -0.005035,-0.027191, -0.035736, -0.238159,0.057800, -0.247314, 0.427216
390, 3890000.000000,-0.090118, 0.038727, 0.000458,-0.027191, -0.035736, -0.238159,0.057800, -0.247314, 0.427216
391, 3900000.000000,-0.090118, 0.038727, 0.000458,-0.027191, -0.035736, -0.238159,0.057800, -0.247314, 0.427216
392, 3910000.000000,-0.109863, 0.055084, 0.003418,-0.038544, -0.065277, -0.211609,0.060394, -0.243317, 0.430939
393, 3920000.000000,-0.109863, 0.055084, 0.003418,-0.038544, -0.065277, -0.211609,0.060394, -0.243317, 0.430939
394, 3930000.000000,-0.109863, 0.055084, 0.007965,-0.038544, -0.065277, -0.211609,0.060394, -0.243317, 0.430939
395, 3940000.000000,-0.163574, 0.067017, 0.007965,-0.038544, -0.065277, -0.211609,0.060394, -0.243317, 0.430939
396, 3950000.000000,-0.163574, 0.067017, 0.007965,-0.040588, -0.014252, -0.250488,0.057343, -0.235138, 0.438629
397, 3960000.000000,-0.229004, 0.073792, 0.004639,-0.040588, -0.014252, -0.250488,0.057343, -0.235138, 0.438629
398, 3970000.000000,-0.229004, 0.073792, 0.004639,-0.040588, -0.014252, -0.250488,0.057343, -0.235138, 0.438629
399, 3980000.000000,-0.155823, 0.074402, -0.016296,-0.040588, -0.014252, -0.250488,0.057343, -0.235138, 0.438629
400, 3990000.000000,-0.155823, 0.074402, -0.016296,-0.009369, -0.025177, -0.263489,0.061707, -0.230255, 0.453339
401, 4000000.000000,-0.109467, 0.076324, -0.047150,-0.009369, -0.025177, -0.263489,0.061707, -0.230255, 0.453339
402, 4010000.000000,-0.109467, 0.076324, -0.047150,-0.009369, -0.025177, -0.263489,0.061707, -0.230255, 0.453339
403, 4020000.000000,-0.104980, 0.068573, -0.052887,-0.009369, -0.025177, -0.263489,0.061707, -0.230255, 0.453339
404, 4030000.000000,-0.104980, 0.068573, -0.052887,-0.017181, -0.015137, -0.254974,0.059875, -0.228821, 0.456543
405, 4040000.000000,-0.104980, 0.068573, -0.052887,-0.015778, -0.015137, -0.254974,0.059875, -0.228821, 0.456543
406, 4050000.000000,-0.075165, 0.073273, -0.065338,-0.015778, -0.015137, -0.254974,0.059875, -0.228821, 0.456543
407, 4060000.000000,-0.075165, 0.073273, -0.065338,-0.015778, -0.015137, -0.254974,0.059875, -0.228821, 0.456543
408, 4070000.000000,-0.075897, 0.082306, -0.057587,-0.015778, -0.015137, -0.216705,0.070435, -0.228729, 0.459595
409, 4080000.000000,-0.075897, 0.082306, -0.057587,-0.044556, -0.020569, -0.216705,0.070435, -0.228729, 0.459595
410, 4090000.000000,-0.023468, 0.117798, -0.024872,-0.044556, -0.020569, -0.216705,0.070435, -0.228729, 0.459595
411, 4100000.000000,-0.023468, 0.117798, -0.024872,-0.044556, -0.020569, -0.216705,0.070435, -0.228729, 0.459595
412, 4110000.000000,-0.023468, 0.117798, -0.011719,-0.044556, -0.020569, -0.216705,0.070435, -0.228729, 0.456116
413, 4120000.000000,-0.012299, 0.129944, -0.011719,-0.015228, -0.008148, -0.252350,0.077057, -0.228973, 0.456116
414, 4130000.000000,-0.012299, 0.129944, -0.011719,-0.015228, -0.008148, -0.252350,0.077057, -0.228973, 0.456116
415, 4140000.000000,0.006653, 0.128571, -0.008514,-0.015228, -0.008148, -0.252350,0.077057, -0.228973, 0.456116
416, 4150000.000000,0.006653, 0.128571, -0.008514,-0.015228, -0.008148, -0.252350,0.077057, -0.232422, 0.446442
417, 4160000.000000,0.039825, 0.126831, 0.000916,-0.003815, -0.019470, -0.262115,0.080658, -0.232422, 0.446442
418, 4170000.000000,0.039825, 0.126831, 0.000916,-0.003815, -0.019470, -0.262115,0.080658, -0.232422, 0.446442
419, 4180000.000000,0.054932, 0.118866, -0.005920,-0.003815, -0.019470, -0.262115,0.080658, -0.232422, 0.446442
420, 4190000.000000,0.054932, 0.118866, -0.005920,-0.003815, -0.019470, -0.262115,0.080658, -0.232422, 0.454254
421, 4200000.000000,0.075348, 0.096100, -0.015106,0.017120, -0.026917, -0.262207,0.083252, -0.231750, 0.460785
422, 4210000.000000,0.075348, 0.096100, -0.015106,0.017120, -0.026917, -0.262207,0.083252, -0.231750, 0.460785
423, 4220000.000000,0.075348, 0.096100, -0.023682,0.017120, -0.026917, -0.262207,0.083252, -0.231750, 0.460785
424, 4230000.000000,0.083405, 0.066650, -0.023682,0.017120, -0.026917, -0.262207,0.083252, -0.231750, 0.460785
425, 4240000.000000,0.083405, 0.066650, -0.023682,0.000519, -0.030426, -0.262451,0.088043, -0.237732, 0.457703
426, 4250000.000000,0.062622, 0.054169, -0.029083,0.000519, -0.030426, -0.262451,0.088043, -0.237732, 0.457703
427, 4260000.000000,0.062622, 0.054169, -0.029083,0.000519, -0.030426, -0.262451,0.088043, -0.237732, 0.457703
428, 4270000.000000,0.071045, 0.060516, -0.027496,0.000519, -0.030426, -0.262451,0.088043, -0.237732, 0.457703
429, 4280000.000000,0.071045, 0.060516, -0.027496,-0.010254, -0.028900, -0.262665,0.089203, -0.238953, 0.455200
430, 4290000.000000,0.064789, 0.081451, -0.015442,-0.010254, -0.028900, -0.262665,0.089203, -0.238953, 0.455200
431, 4300000.000000,0.064789, 0.081451, -0.015442,-0.010254, -0.028900, -0.262665,0.089203, -0.238953, 0.455200
432, 4310000.000000,0.064789, 0.081451, -0.015442,-0.010254, -0.028900, -0.262665,0.089203, -0.238953, 0.455200
433, 4320000.000000,0.050537, 0.100861, 0.003235,-0.014648, -0.031433, -0.264496,0.084930, -0.242371, 0.456573
434, 4330000.000000,0.050537, 0.100861, 0.003235,-0.014648, -0.031433, -0.264496,0.084930, -0.242371, 0.456573
435, 4340000.000000,0.011414, 0.127655, 0.027191,-0.014648, -0.031433, -0.264496,0.084930, -0.242371, 0.456573
436, 4350000.000000,0.011414, 0.127655, 0.027191,-0.014648, -0.031433, -0.264496,0.084930, -0.242371, 0.456573
437, 4360000.000000,0.015320, 0.155518, 0.052094,-0.022461, -0.028748, -0.257202,0.098846, -0.241913, 0.463287
438, 4370000.000000,0.015320, 0.155518, 0.052094,-0.021790, -0.028748, -0.257202,0.098846, -0.241913, 0.463287
439, 4380000.000000,-0.001495, 0.206146, 0.050385,-0.021790, -0.028748, -0.257202,0.098846, -0.241913, 0.463287
440, 4390000.000000,-0.001495, 0.206146, 0.050385,-0.021790, -0.028748, -0.257202,0.098846, -0.241913, 0.463287
441, 4400000.000000,-0.001495, 0.206146, 0.050385,-0.021790, -0.028748, -0.260315,0.100372, -0.241913, 0.458771
442, 4410000.000000,0.011688, 0.269592, 0.016693,0.001984, -0.023621, -0.260315,0.100372, -0.241913, 0.458771
443, 4420000.000000,0.011688, 0.269592, 0.016693,0.001984, -0.023621, -0.260315,0.100372, -0.241913, 0.458771
444, 4430000.000000,0.016632, 0.264282, -0.002991,0.001984, -0.023621, -0.260315,0.100372, -0.241913, 0.458771
445, 4440000.000000,0.016632, 0.264282, -0.002991,0.001984, -0.023621, -0.260315,0.115997, -0.244141, 0.458374
446, 4450000.000000,0.006256, 0.209778, -0.092926,-0.219757, -0.012115, -0.281586,0.116302, -0.244141, 0.458374
447, 4460000.000000,0.006256, 0.209778, -0.092926,-0.219757, -0.012115, -0.281586,0.116302, -0.244141, 0.458374
448, 4470000.000000,0.216248, 0.387787, -0.251434,-0.219757, -0.012115, -0.281586,0.116302, -0.244141, 0.458374
449, 4480000.000000,0.216248, 0.387787, -0.251434,-0.219757, -0.012115, -0.281586,0.116302, -0.251953, 0.449097
450, 4490000.000000,0.216248, 0.387787, -0.228363,-0.174042, -0.082825, -0.436554,0.148865, -0.256256, 0.449097
451, 4500000.000000,0.473083, 0.788269, -0.228363,-0.174042, -0.082825, -0.436554,0.148865, -0.256256, 0.449097
452, 4510000.000000,0.473083, 0.788269, -0.329102,-0.174042, -0.082825, -0.436554,0.148865, -0.256256, 0.449097
453, 4520000.000000,0.715027, 0.989258, -0.329102,-0.174042, -0.082825, -0.436554,0.219177, -0.266479, 0.423737
454, 4530000.000000,0.715027, 0.989258, -0.329102,-0.158691, -0.095703, -0.452820,0.221313, -0.266479, 0.423737
455, 4540000.000000,0.542908, 0.989258, -0.560822,-0.158691, -0.095703, -0.452820,0.221313, -0.266479, 0.423737
456, 4550000.000000,0.542908, 0.989258, -0.560822,-0.158691, -0.095703, -0.452820,0.221313, -0.266479, 0.423737
457, 4560000.000000,0.599640, 0.989258, -0.559113,-0.158691, -0.095703, -0.452820,0.221313, -0.266479, 0.423737
458, 4570000.000000,0.599640, 0.989258, -0.559113,-0.235962, 0.032806, -0.431000,0.312103, -0.262451, 0.370636
459, 4580000.000000,0.599640, 0.989258, -0.559113,-0.235962, 0.032806, -0.431000,0.312103, -0.262451, 0.370636
460, 4590000.000000,0.565338, 0.989258, -0.718262,-0.235962, 0.032806, -0.431000,0.312103, -0.262451, 0.370636
461, 4600000.000000,0.565338, 0.989258, -0.718262,-0.235962, 0.032806, -0.431000,0.312103, -0.262451, 0.370636
462, 4610000.000000,0.288086, 0.989258, -0.952240,-0.235962, -0.095612, 0.057220,0.410583, -0.231079, 0.300842
463, 4620000.000000,0.288086, 0.989258, -0.952240,-0.547302, -0.095612, 0.057220,0.410583, -0.231079, 0.300842
464, 4630000.000000,0.266602, 0.989258, -0.900452,-0.547302, -0.095612, 0.057220,0.410583, -0.231079, 0.300842
465, 4640000.000000,0.266602, 0.989258, -0.900452,-0.547302, -0.095612, 0.057220,0.410583, -0.231079, 0.300842
466, 4650000.000000,0.442291, 0.989258, -0.888702,0.868225, -0.171753, -0.735840,0.478424, -0.200928, 0.222778
467, 4660000.000000,0.442291, 0.989258, -0.888702,0.868225, -0.171753, -0.735840,0.478424, -0.200928, 0.222778
468, 4670000.000000,0.442291, 0.989258, -0.961456,0.868225, -0.171753, -0.735840,0.478424, -0.200928, 0.222778
469, 4680000.000000,0.183136, 0.989197, -0.961456,0.868225, -0.171753, -0.735840,0.478424, -0.200928, 0.222778
470, 4690000.000000,0.183136, 0.989197, -0.961456,-0.203400, -0.565857, -0.999084,0.474121, -0.159027, 0.227173
471, 4700000.000000,0.063049, 0.671539, -0.851257,-0.203400, -0.565857, -0.999084,0.474121, -0.159027, 0.227173
472, 4710000.000000,0.063049, -0.219086, -0.569641,-0.203400, -0.565857, -0.999084,0.474121, -0.159027, 0.227173
473, 4720000.000000,-0.078278, -0.222412, -0.569641,-0.203400, -0.565857, -0.999084,0.474121, -0.159027, 0.286591
474, 4730000.000000,-0.078278, -0.222412, -0.569641,-0.119659, -0.409058, -0.684387,0.412689, -0.142578, 0.286591
475, 4740000.000000,-0.157257, -0.601044, -0.338684,-0.119659, -0.409058, -0.684387,0.412689, -0.142578, 0.286591
476, 4750000.000000,-0.157257, -0.601044, -0.338684,-0.119659, -0.409058, -0.684387,0.412689, -0.142578, 0.286591
477, 4760000.000000,-0.277588, -0.846985, -0.166046,-0.119659, -0.409058, -0.684387,0.412689, -0.142578, 0.286591
478, 4770000.000000,-0.277588, -0.846985, -0.166046,-0.132141, -0.300751, -0.185638,0.326599, -0.136078, 0.338928
479, 4780000.000000,-0.337524, -0.952362, -0.003418,-0.132141, -0.300751, -0.185638,0.326599, -0.136078, 0.338928
480, 4790000.000000,-0.337524, -0.952362, -0.003418,-0.132141, -0.300751, -0.185638,0.326599, -0.136078, 0.338928
481, 4800000.000000,-0.163727, -0.961914, 0.099487,-0.132141, -0.300751, -0.185638,0.326599, -0.136078, 0.338928
482, 4810000.000000,-0.163727, -0.961914, 0.099487,-0.069366, -0.123901, -0.023041,0.219025, -0.134155, 0.345245
483, 4820000.000000,-0.163727, -0.961914, 0.099487,-0.069366, -0.123901, -0.023041,0.219025, -0.134155, 0.345245
484, 4830000.000000,-0.068115, -0.920013, 0.150909,-0.069366, -0.123901, -0.023041,0.219025, -0.134155, 0.345245
485, 4840000.000000,-0.068115, -0.920013, 0.150909,-0.069366, -0.123901, -0.023041,0.219025, -0.134155, 0.345245
486, 4850000.000000,0.004639, -0.877960, 0.184113,-0.026642, -0.049347, -0.110474,0.103973, -0.135529, 0.319092
487, 4860000.000000,0.004639, -0.877960, 0.184113,-0.026642, -0.049347, -0.110474,0.103973, -0.135529, 0.319092
488, 4870000.000000,0.054230, -0.878998, 0.189697,-0.026642, -0.049347, -0.110474,0.103973, -0.135529, 0.319092
489, 4880000.000000,0.054230, -0.878998, 0.189697,-0.026642, -0.049347, -0.110474,0.103973, -0.135529, 0.319092
490, 4890000.000000,0.098389, -0.928040, 0.174194,0.012421, 0.002441, -0.255554,-0.004150, -0.131195, 0.264160
491, 4900000.000000,0.098389, -0.928040, 0.174194,0.009521, 0.002441, -0.255554,-0.004150, -0.131195, 0.264160
492, 4910000.000000,0.098389, -0.928040, 0.174194,0.009521, 0.002441, -0.255554,-0.004150, -0.131195, 0.264160
493, 4920000.000000,0.148529, -0.986389, 0.156860,0.009521, 0.002441, -0.255554,-0.004150, -0.131195, 0.264160
494, 4930000.000000,0.148529, -0.986389, 0.146820,0.049255, 0.000458, -0.286346,-0.100037, -0.119141, 0.159760
495, 4940000.000000,0.175903, -1.000000, 0.146820,0.049255, 0.000458, -0.286346,-0.100037, -0.119141, 0.159760
496, 4950000.000000,0.175903, -1.000000, 0.146820,0.049255, 0.000458, -0.286346,-0.100037, -0.119141, 0.159760
497, 4960000.000000,0.170349, -1.000000, 0.143921,0.049255, 0.000458, -0.286346,-0.100037, -0.119141, 0.159760
498, 4970000.000000,0.170349, -1.000000, 0.143921,0.088318, -0.002380, -0.264496,-0.159821, -0.089050, 0.030731
499, 4980000.000000,0.137787, -1.000000, 0.145630,0.091461, -0.002380, -0.264496,-0.159821, -0.089050, 0.030731
500, 4990000.000000,0.137787, -1.000000, 0.145630,0.091461, -0.002380, -0.264496,-0.159821, -0.089050, 0.030731
501, 5000000.000000,0.109070, -1.000000, 0.147308,0.091461, -0.002380, -0.264496,-0.159821, -0.089050, 0.030731
502, 5010000.000000,0.109070, -1.000000, 0.147308,0.124115, 0.015808, -0.283356,-0.160950, -0.048615, -0.104523
503, 5020000.000000,0.109070, -1.000000, 0.144958,0.124115, 0.015808, -0.283356,-0.160950, -0.048615, -0.104523
504, 5030000.000000,0.092712, -1.000000, 0.144958,0.124115, 0.015808, -0.283356,-0.160950, -0.048615, -0.104523
505, 5040000.000000,0.092712, -1.000000, 0.144958,0.124115, 0.015808, -0.283356,-0.160950, -0.048615, -0.104523
506, 5050000.000000,0.093048, -1.000000, 0.138794,0.163177, 0.037354, -0.312714,-0.098175, -0.004700, -0.186737
507, 5060000.000000,0.093048, -1.000000, 0.138794,0.160156, 0.037354, -0.312714,-0.098175, -0.004700, -0.186737
508, 5070000.000000,0.110168, -1.000000, 0.129303,0.160156, 0.037354, -0.312714,-0.098175, -0.004700, -0.186737
509, 5080000.000000,0.110168, -1.000000, 0.129303,0.160156, 0.037354, -0.312714,-0.098175, -0.004700, -0.186737
510, 5090000.000000,0.133820, -1.000000, 0.121857,0.160156, 0.037354, -0.379272,-0.007568, 0.024689, -0.184387
511, 5100000.000000,0.133820, -1.000000, 0.121857,0.212006, 0.008881, -0.379272,-0.007568, 0.024689, -0.184387
512, 5110000.000000,0.144196, -1.000000, 0.132782,0.212006, 0.008881, -0.379272,-0.007568, 0.024689, -0.184387
513, 5120000.000000,0.144196, -1.000000, 0.132782,0.212006, 0.008881, -0.379272,-0.007568, 0.024689, -0.184387
514, 5130000.000000,0.127808, -1.000000, 0.170013,0.245239, -0.064758, -0.438110,0.058197, 0.040314, -0.136108
515, 5140000.000000,0.127808, -1.000000, 0.170013,0.245239, -0.064758, -0.438110,0.058197, 0.040314, -0.136108
516, 5150000.000000,0.079559, -1.000000, 0.229736,0.245239, -0.064758, -0.438110,0.058197, 0.040314, -0.136108
517, 5160000.000000,0.079559, -1.000000, 0.229736,0.245239, -0.064758, -0.438110,0.058197, 0.040314, -0.136108
518, 5170000.000000,0.014191, -1.000000, 0.288635,0.296539, -0.072906, -0.462250,0.081207, 0.045227, -0.070831
519, 5180000.000000,0.014191, -1.000000, 0.288635,0.296539, -0.072906, -0.462250,0.081207, 0.045227, -0.070831
520, 5190000.000000,0.014191, -1.000000, 0.288635,0.296539, -0.072906, -0.462250,0.081207, 0.045227, -0.070831
521, 5200000.000000,-0.040070, -1.000000, 0.331604,0.296539, -0.072906, -0.462250,0.081207, 0.045227, -0.070831
522, 5210000.000000,-0.040070, -1.000000, 0.331604,0.374725, -0.067810, -0.506042,0.077789, 0.049957, -0.037781
523, 5220000.000000,-0.072235, -1.000000, 0.354492,0.374725, -0.067810, -0.506042,0.077789, 0.049957, -0.037781
524, 5230000.000000,-0.072235, -1.000000, 0.354492,0.374725, -0.067810, -0.506042,0.077789, 0.049957, -0.037781
525, 5240000.000000,-0.086609, -0.999847, 0.369995,0.374725, -0.067810, -0.506042,0.077789, 0.049957, -0.037781
526, 5250000.000000,-0.086609, -0.999847, 0.369995,0.404327, -0.101257, -0.431030,0.063110, 0.058441, -0.034454
527, 5260000.000000,-0.095520, -0.978241, 0.377319,0.404327, -0.101257, -0.431030,0.063110, 0.058441, -0.034454
528, 5270000.000000,-0.095520, -0.978241, 0.377319,0.404327, -0.101257, -0.431030,0.063110, 0.058441, -0.034454
529, 5280000.000000,-0.095520, -0.891693, 0.373169,0.404327, -0.101257, -0.431030,0.063110, 0.058441, -0.034454
530, 5290000.000000,-0.117523, -0.891693, 0.373169,0.444122, -0.127930, -0.326355,0.053131, 0.067963, -0.031982
531, 5300000.000000,-0.117523, -0.891693, 0.373169,0.444122, -0.127930, -0.326355,0.053131, 0.067963, -0.031982
532, 5310000.000000,-0.135040, -0.778107, 0.350067,0.444122, -0.127930, -0.326355,0.053131, 0.067963, -0.031982
533, 5320000.000000,-0.135040, -0.778107, 0.350067,0.444122, -0.127930, -0.326355,0.053131, 0.067963, -0.031982
534, 5330000.000000,-0.115784, -0.670380, 0.293060,0.509766, -0.086548, -0.279816,0.048706, 0.074860, -0.031555
535, 5340000.000000,-0.115784, -0.670380, 0.214935,0.509766, -0.086548, -0.279816,0.048706, 0.074860, -0.031555
536, 5350000.000000,-0.007141, -0.593323, 0.212006,0.509766, -0.086548, -0.279816,0.048706, 0.074860, -0.031555
537, 5360000.000000,-0.007141, -0.593323, 0.212006,0.509766, -0.086548, -0.279816,0.048706, 0.076172, -0.041199
538, 5370000.000000,0.199890, -0.541840, 0.130920,0.561951, 0.049286, -0.222382,0.054352, 0.076172, -0.041199
539, 5380000.000000,0.199890, -0.541840, 0.130920,0.561951, 0.049286, -0.222382,0.054352, 0.076172, -0.041199
540, 5390000.000000,0.570251, -0.542206, 0.102936,0.561951, 0.049286, -0.222382,0.054352, 0.076172, -0.041199
541, 5400000.000000,0.570251, -0.542206, 0.102936,0.561951, 0.049286, -0.222382,0.054352, 0.083618, -0.034821
542, 5410000.000000,0.845276, -0.441986, 0.177551,0.631042, -0.110535, 0.144928,0.063019, 0.083618, -0.034821
543, 5420000.000000,0.845276, -0.441986, 0.177551,0.631042, -0.110535, 0.144928,0.063019, 0.083618, -0.034821
544, 5430000.000000,0.457245, 0.005371, 0.340240,0.631042, -0.110535, 0.144928,0.063019, 0.083618, -0.034821
545, 5440000.000000,0.457245, 0.005371, 0.340240,0.631042, -0.110535, 0.144928,0.063019, 0.083618, -0.042633
546, 5450000.000000,0.457245, 0.294434, 0.352661,0.979675, 0.185150, 0.373260,0.061127, 0.085266, -0.040558
547, 5460000.000000,-0.081177, 0.292633, 0.352661,0.979675, 0.185150, 0.373260,0.061127, 0.085266, -0.040558
548, 5470000.000000,-0.081177, 0.292633, 0.352661,0.979675, 0.185150, 0.373260,0.061127, 0.085266, -0.040558
549, 5480000.000000,-0.116394, 0.621307, 0.068176,0.979675, 0.185150, 0.373260,0.061127, 0.085266, -0.040558
550, 5490000.000000,-0.116394, 0.621307, 0.068176,-0.247620, 0.009033, 0.000641,0.062164, 0.083801, -0.032715
551, 5500000.000000,-0.329651, 0.756439, -0.168854,-0.247620, 0.009033, 0.000641,0.062164, 0.083801, -0.032715
552, 5510000.000000,-0.329651, 0.756439, -0.168854,-0.247620, 0.009033, 0.000641,0.062164, 0.083801, -0.032715
553, 5520000.000000,-0.216797, 0.971619, -0.058777,-0.247620, 0.009033, 0.000641,0.062164, 0.083801, -0.032715
554, 5530000.000000,-0.216797, 0.971619, -0.058777,0.321777, -0.191681, -0.680603,0.054626, 0.089386, -0.033386
555, 5540000.000000,0.074921, 0.754303, 0.091339,0.321777, -0.191681, -0.680603,0.054626, 0.089386, -0.033386
556, 5550000.000000,0.074921, 0.754303, 0.091339,0.321777, -0.191681, -0.680603,0.054626, 0.089386, -0.033386
557, 5560000.000000,0.041046, 0.617310, 0.112701,0.321777, -0.191681, -0.680603,0.054626, 0.092743, -0.024689
558, 5570000.000000,0.041046, 0.617310, 0.112701,-0.059052, 0.190857, -0.304840,0.052429, 0.092743, -0.024689
559, 5580000.000000,0.041046, 0.757935, 0.038269,-0.059052, 0.190857, -0.304840,0.052429, 0.092743, -0.024689
560, 5590000.000000,0.059204, 0.759674, 0.038269,-0.059052, 0.190857, -0.304840,0.052429, 0.092743, -0.024689
561, 5600000.000000,0.059204, 0.759674, 0.038269,-0.059052, 0.190857, -0.304840,0.052429, 0.092743, -0.024200
562, 5610000.000000,0.044220, 0.785522, -0.093872,0.153534, 0.127289, -0.623199,0.056122, 0.093292, -0.024200
563, 5620000.000000,0.044220, 0.785522, -0.093872,0.153534, 0.127289, -0.623199,0.056122, 0.093292, -0.024200
564, 5630000.000000,-0.005096, 0.659180, -0.045990,0.153534, 0.127289, -0.623199,0.056122, 0.093292, -0.024200
565, 5640000.000000,-0.005096, 0.659180, -0.045990,0.153534, 0.127289, -0.623199,0.056122, 0.093292, -0.024200
566, 5650000.000000,-0.278473, 0.230988, 0.056000,-0.066132, 0.150818, -0.325348,0.053955, 0.092804, -0.027466
567, 5660000.000000,-0.278473, 0.230988, 0.056000,-0.066132, 0.150818, -0.325348,0.053955, 0.092804, -0.027466
568, 5670000.000000,-0.278473, 0.145050, 0.032959,-0.066132, 0.150818, -0.325348,0.053955, 0.092804, -0.027466
569, 5680000.000000,-0.144104, 0.142273, 0.032959,-0.066132, 0.150818, -0.325348,0.053955, 0.092804, -0.027466
570, 5690000.000000,-0.144104, 0.142273, 0.032959,0.001434, -0.138947, -0.285889,0.049164, 0.091888, -0.018829
571, 5700000.000000,-0.070251, 0.080627, 0.020782,0.001434, -0.138947, -0.285889,0.049164, 0.091888, -0.018829
572, 5710000.000000,-0.070251, 0.080627, 0.020782,0.001434, -0.138947, -0.285889,0.049164, 0.091888, -0.018829
573, 5720000.000000,-0.085571, 0.024994, 0.009674,0.001434, -0.138947, -0.285889,0.049164, 0.091888, -0.018829
574, 5730000.000000,-0.085571, 0.024994, 0.009674,-0.023468, -0.054108, -0.270844,0.050690, 0.091217, -0.023682
575, 5740000.000000,-0.050659, 0.000702, -0.000244,-0.023468, -0.054108, -0.270844,0.050690, 0.091217, -0.023682
576, 5750000.000000,-0.050659, 0.000702, -0.000244,-0.023468, -0.054108, -0.270844,0.050690, 0.091217, -0.023682
577, 5760000.000000,-0.056763, -0.010284, -0.005005,-0.023468, -0.054108, -0.270844,0.050690, 0.091217, -0.023682
578, 5770000.000000,-0.056763, -0.010284, -0.005005,-0.021820, -0.016296, -0.277832,0.047119, 0.093567, -0.020874
579, 5780000.000000,-0.038696, -0.018494, -0.008392,-0.021820, -0.016296, -0.277832,0.047119, 0.093567, -0.020874
580, 5790000.000000,-0.038696, -0.018494, -0.008392,-0.021820, -0.016296, -0.277832,0.047119, 0.093567, -0.020874
581, 5800000.000000,-0.038696, -0.021454, -0.009064,-0.021820, -0.016296, -0.277832,0.047119, 0.093567, -0.020874
582, 5810000.000000,-0.032196, -0.021454, -0.009064,-0.037445, -0.004059, -0.242096,0.048523, 0.093781, -0.017883
583, 5820000.000000,-0.032196, -0.021454, -0.009064,-0.037445, -0.004059, -0.242096,0.048523, 0.093781, -0.017883
584, 5830000.000000,-0.015961, -0.010132, -0.009918,-0.037445, -0.004059, -0.242096,0.048523, 0.093781, -0.017883
585, 5840000.000000,-0.015961, -0.010132, -0.009918,-0.037445, -0.004059, -0.242096,0.048523, 0.093781, -0.017883
586, 5850000.000000,-0.002625, 0.000366, -0.012695,-0.039734, -0.013397, -0.221130,0.052216, 0.093079, -0.015198
587, 5860000.000000,-0.002625, 0.000366, -0.012695,-0.039734, -0.013397, -0.221130,0.052216, 0.093079, -0.015198
588, 5870000.000000,0.008606, 0.018372, -0.013916,-0.039734, -0.013397, -0.221130,0.052216, 0.093079, -0.015198
589, 5880000.000000,0.008606, 0.018372, -0.013916,-0.039734, -0.013397, -0.221130,0.052216, 0.093079, -0.015198
590, 5890000.000000,0.021698, 0.023956, -0.015808,-0.028381, -0.024200, -0.249573,0.052521, 0.091431, -0.022736
591, 5900000.000000,0.021698, 0.023956, -0.015808,-0.028381, -0.024200, -0.249573,0.052521, 0.091431, -0.022736
592, 5910000.000000,0.021698, 0.023956, -0.007996,-0.028381, -0.024200, -0.249573,0.052521, 0.091431, -0.022736
593, 5920000.000000,0.030487, 0.026550, -0.014343,-0.028381, -0.024200, -0.249573,0.052521, 0.091431, -0.022736
594, 5930000.000000,0.030487, 0.026550, -0.014343,-0.028107, -0.023773, -0.254913,0.052917, 0.092743, -0.017487
595, 5940000.000000,0.030884, 0.033447, -0.012909,-0.028107, -0.023773, -0.254913,0.052917, 0.092743, -0.017487
596, 5950000.000000,0.030884, 0.033447, -0.012909,-0.028107, -0.023773, -0.254913,0.052917, 0.092743, -0.017487
597, 5960000.000000,0.027954, 0.035889, -0.012482,-0.028107, -0.023773, -0.254913,0.052917, 0.093018, -0.020966
598, 5970000.000000,0.027954, 0.035889, -0.012482,-0.034302, -0.025055, -0.245850,0.054047, 0.093018, -0.020966
599, 5980000.000000,0.027893, 0.042328, -0.013428,-0.034302, -0.025055, -0.245850,0.054047, 0.093018, -0.020966
600, 5990000.000000,0.027893, 0.042328, -0.013428,-0.034302, -0.025055, -0.245850,0.054047, 0.093018, -0.020966
601, 6000000.000000,0.023071, 0.051270, -0.014130,-0.034302, -0.025055, -0.245850,0.054047, 0.093018, -0.021973
602, 6010000.000000,0.023071, 0.051270, -0.014130,-0.026184, -0.038635, -0.256378,0.053192, 0.095642, -0.021973
603, 6020000.000000,0.005035, 0.052216, -0.015747,-0.026184, -0.038635, -0.256378,0.053192, 0.095642, -0.021973
604, 6030000.000000,0.005035, 0.052216, -0.015747,-0.026184, -0.038635, -0.256378,0.053192, 0.095642, -0.021973
605, 6040000.000000,0.005035, 0.052216, -0.015747,-0.026184, -0.038635, -0.256378,0.053192, 0.095642, -0.021973
606, 6050000.000000,-0.014465, 0.054626, -0.015961,-0.026031, -0.032440, -0.249756,0.049927, 0.093201, -0.027039
607, 6060000.000000,-0.014465, 0.054626, -0.015961,-0.026031, -0.032440, -0.249756,0.049927, 0.093201, -0.027039
608, 6070000.000000,-0.024719, 0.065491, -0.017517,-0.026031, -0.032440, -0.249756,0.049927, 0.093201, -0.027039
609, 6080000.000000,-0.024719, 0.065491, -0.017517,-0.026031, -0.032440, -0.249756,0.049927, 0.093201, -0.027039
610, 6090000.000000,-0.035278, 0.069855, -0.014465,-0.015533, -0.021484, -0.269531,0.047638, 0.095581, -0.015900
611, 6100000.000000,-0.035278, 0.069855, -0.014465,-0.015533, -0.021484, -0.269531,0.047638, 0.095581, -0.015900
612, 6110000.000000,-0.016968, 0.052704, -0.011047,-0.015533, -0.021484, -0.269531,0.047638, 0.095581, -0.015900
613, 6120000.000000,-0.016968, 0.052704, -0.011047,-0.015533, -0.021484, -0.269531,0.047638, 0.095581, -0.015900
614, 6130000.000000,-0.016968, 0.037079, -0.013062,-0.026154, -0.023376, -0.255951,0.049255, 0.093445, -0.014557
615, 6140000.000000,-0.047638, 0.035187, -0.013062,-0.026154, -0.023376, -0.255951,0.049255, 0.093445, -0.014557
616, 6150000.000000,-0.047638, 0.035187, -0.013062,-0.026154, -0.023376, -0.255951,0.049255, 0.093445, -0.014557
617, 6160000.000000,-0.037781, 0.036560, -0.010712,-0.026154, -0.023376, -0.255951,0.049255, 0.101257, -0.018829
618, 6170000.000000,-0.037781, 0.040436, -0.016846,-0.020905, -0.031067, -0.262390,0.044281, 0.094025, -0.018829
619, 6180000.000000,-0.036316, 0.040436, -0.016846,-0.020905, -0.031067, -0.262390,0.044281, 0.094025, -0.018829
620, 6190000.000000,-0.051941, 0.037445, -0.014160,-0.020905, -0.031067, -0.262390,0.044281, 0.094025, -0.018829
621, 6200000.000000,-0.054565, 0.037445, -0.014160,-0.020905, -0.031067, -0.262390,0.052094, 0.093750, -0.020966
622, 6210000.000000,-0.054565, 0.037445, -0.014160,-0.014252, -0.022217, -0.266846,0.050354, 0.093750, -0.020966
623, 6220000.000000,-0.036499, 0.027985, -0.015137,-0.014252, -0.022217, -0.266846,0.050354, 0.093750, -0.020966
624, 6230000.000000,-0.036499, 0.027985, -0.015137,-0.014252, -0.022217, -0.266846,0.050354, 0.093750, -0.020966
625, 6240000.000000,-0.041382, 0.027222, -0.015869,-0.014252, -0.022217, -0.266846,0.050354, 0.093750, -0.018707
626, 6250000.000000,-0.041382, 0.027222, -0.015869,-0.019165, -0.019440, -0.262421,0.050659, 0.094025, -0.018707
627, 6260000.000000,-0.040192, 0.032074, -0.016937,-0.019165, -0.019440, -0.262421,0.050659, 0.094025, -0.018707
628, 6270000.000000,-0.040192, 0.032074, -0.016937,-0.019165, -0.019440, -0.262421,0.050659, 0.094025, -0.018707
629, 6280000.000000,-0.033112, 0.029358, -0.023682,-0.019165, -0.019440, -0.262421,0.050659, 0.094025, -0.018707
630, 6290000.000000,-0.033112, 0.029358, -0.023682,-0.022186, -0.017853, -0.255707,0.052826, 0.092072, -0.012146
631, 6300000.000000,-0.033112, 0.029358, -0.023682,-0.022186, -0.017853, -0.255707,0.052826, 0.092072, -0.012146
632, 6310000.000000,-0.034241, 0.039703, -0.032166,-0.022186, -0.017853, -0.255707,0.052826, 0.092072, -0.012146
633, 6320000.000000,-0.034241, 0.039703, -0.032166,-0.022186, -0.017853, -0.255707,0.052826, 0.092072, -0.012146
634, 6330000.000000,-0.032013, 0.040131, -0.039490,-0.034088, -0.018646, -0.242737,0.045654, 0.092102, -0.020233
635, 6340000.000000,-0.032013, 0.040131, -0.039490,-0.034088, -0.018646, -0.242737,0.045654, 0.092102, -0.020233
636, 6350000.000000,-0.028778, 0.065521, -0.034180,-0.034088, -0.018646, -0.242737,0.045654, 0.092102, -0.020233
637, 6360000.000000,-0.028778, 0.065521, -0.034180,-0.034088, -0.018646, -0.242737,0.053436, 0.090485, -0.015198
638, 6370000.000000,-0.010162, 0.093506, -0.018494,-0.021271, -0.018890, -0.244995,0.053436, 0.090485, -0.015198
639, 6380000.000000,-0.010162, 0.093506, -0.018494,-0.021271, -0.018890, -0.244995,0.053436, 0.090485, -0.015198
640, 6390000.000000,-0.006500, 0.095398, -0.022980,-0.021271, -0.018890, -0.244995,0.053436, 0.090485, -0.015198
641, 6400000.000000,-0.006500, 0.095398, -0.022980,-0.021271, -0.013031, -0.252808,0.047882, 0.095642, -0.018616
642, 6410000.000000,-0.003296, 0.109375, -0.010223,-0.013763, -0.013031, -0.252808,0.047882, 0.095642, -0.018616
643, 6420000.000000,-0.003296, 0.109375, -0.010223,-0.013763, -0.013031, -0.252808,0.047882, 0.095642, -0.018616
644, 6430000.000000,0.017670, 0.105286, -0.008911,-0.013763, -0.013031, -0.252808,0.047882, 0.095642, -0.018616
645, 6440000.000000,0.017670, 0.105286, -0.008911,-0.013763, -0.013031, -0.252808,0.047882, 0.093781, -0.018585
646, 6450000.000000,0.017670, 0.105286, -0.001099,-0.013000, -0.016205, -0.259064,0.052429, 0.093781, -0.018585
647, 6460000.000000,0.022888, 0.111694, -0.006134,-0.013000, -0.016205, -0.259064,0.052429, 0.093781, -0.018585
648, 6470000.000000,0.022888, 0.111694, -0.006134,-0.013000, -0.016205, -0.259064,0.052429, 0.093781, -0.018585
649, 6480000.000000,0.040833, 0.109222, -0.008270,-0.013000, -0.016205, -0.259064,0.052429, 0.093781, -0.018585
650, 6490000.000000,0.040833, 0.109222, -0.008270,0.007141, -0.023499, -0.264496,0.047211, 0.094543, -0.022614
651, 6500000.000000,0.055481, 0.091888, -0.003540,0.007141, -0.023499, -0.264496,0.047211, 0.094543, -0.022614
652, 6510000.000000,0.055481, 0.091888, -0.003540,0.007141, -0.023499, -0.264496,0.047211, 0.094543, -0.022614
653, 6520000.000000,0.055481, 0.091888, -0.003540,0.007141, -0.023499, -0.264496,0.047211, 0.094543, -0.022614
654, 6530000.000000,0.044067, 0.070374, -0.012634,-0.007721, -0.022858, -0.255371,0.053040, 0.093262, -0.025482
655, 6540000.000000,0.044067, 0.070374, -0.012634,-0.007721, -0.022858, -0.255371,0.053040, 0.093262, -0.025482
656, 6550000.000000,0.051331, 0.070892, -0.010498,-0.007721, -0.022858, -0.255371,0.053040, 0.093262, -0.025482
657, 6560000.000000,0.051331, 0.070892, -0.010498,-0.007721, -0.022858, -0.255371,0.053040, 0.093262, -0.025482
658, 6570000.000000,0.054626, 0.061584, -0.006409,-0.005646, -0.032990, -0.262482,0.048615, 0.093384, -0.017365
659, 6580000.000000,0.054626, 0.061584, -0.006409,-0.005646, -0.032990, -0.262482,0.048615, 0.093384, -0.017365
660, 6590000.000000,0.029449, 0.066956, -0.001831,-0.005646, -0.032990, -0.262482,0.048615, 0.093384, -0.017365
661, 6600000.000000,0.029449, 0.066956, -0.001831,-0.005646, -0.032990, -0.262482,0.048615, 0.101196, -0.023773
662, 6610000.000000,0.026276, 0.072021, 0.004700,-0.005432, -0.026306, -0.257782,0.048096, 0.095825, -0.023773
663, 6620000.000000,0.026276, 0.072021, 0.004700,-0.005432, -0.026306, -0.257782,0.048096, 0.095825, -0.023773
664, 6630000.000000,0.033752, 0.079559, 0.005676,-0.005432, -0.026306, -0.257782,0.048096, 0.095825, -0.023773
665, 6640000.000000,0.033752, 0.079559, 0.005676,-0.005432, -0.026306, -0.257782,0.048096, 0.095825, -0.023773
666, 6650000.000000,0.033752, 0.102264, -0.008514,-0.004303, -0.038055, -0.262268,0.050629, 0.091614, -0.018524
667, 6660000.000000,0.009338, 0.102264, -0.008514,-0.004303, -0.038055, -0.262268,0.050629, 0.091614, -0.018524
668, 6670000.000000,0.009338, 0.102264, -0.008514,-0.004303, -0.038055, -0.262268,0.050629, 0.091614, -0.018524
669, 6680000.000000,-0.014679, 0.123932, -0.009766,-0.004303, -0.038055, -0.262268,0.050629, 0.091614, -0.018524
670, 6690000.000000,-0.014679, 0.123932, -0.009766,-0.017456, -0.029053, -0.256592,0.049835, 0.095428, -0.022278
671, 6700000.000000,-0.020660, 0.154510, -0.006378,-0.017456, -0.029053, -0.256592,0.049835, 0.095428, -0.022278
672, 6710000.000000,-0.020660, 0.154510, -0.006378,-0.017456, -0.029053, -0.256592,0.049835, 0.095428, -0.022278
673, 6720000.000000,-0.016510, 0.183044, -0.006683,-0.017456, -0.029053, -0.256592,0.049835, 0.095428, -0.022278
674, 6730000.000000,-0.016510, 0.183044, -0.006683,-0.024963, -0.026062, -0.248962,0.054840, 0.096039, -0.015045
675, 6740000.000000,0.021332, 0.220856, 0.001678,-0.024963, -0.026062, -0.248962,0.054840, 0.096039, -0.015045
676, 6750000.000000,0.021332, 0.220856, 0.001678,-0.024963, -0.026062, -0.248962,0.054840, 0.096039, -0.015045
677, 6760000.000000,0.021332, 0.213043, -0.083984,-0.024963, -0.026062, -0.248962,0.054840, 0.096039, -0.015045
678, 6770000.000000,0.028778, 0.215759, -0.083984,-0.288513, 0.010956, -0.306061,0.043518, 0.097137, -0.016541
679, 6780000.000000,0.028778, 0.328613, -0.242981,-0.288513, 0.010956, -0.306061,0.043518, 0.097137, -0.016541
680, 6790000.000000,-0.050110, 0.328613, -0.242981,-0.288513, 0.010956, -0.306061,0.043518, 0.097137, -0.016541
681, 6800000.000000,-0.050110, 0.328613, -0.078918,-0.288513, 0.010956, -0.306061,0.043518, 0.097137, -0.014496
682, 6810000.000000,0.046844, 0.852539, -0.078888,-0.004272, 0.021973, -0.509735,0.050446, 0.096893, -0.014496
683, 6820000.000000,0.046844, 0.852539, -0.078888,-0.004272, 0.021973, -0.509735,0.050446, 0.096893, -0.014496
684, 6830000.000000,0.120483, 0.989136, -0.213470,-0.004272, 0.021973, -0.509735,0.050446, 0.096893, -0.014496
685, 6840000.000000,0.120483, 0.989136, -0.213470,-0.004272, 0.021973, -0.509735,0.050446, 0.096893, -0.014496
686, 6850000.000000,0.246399, 0.989258, -0.463867,-0.058777, -0.080444, -0.444031,0.050476, 0.095612, -0.012482
687, 6860000.000000,0.246399, 0.989258, -0.463867,-0.058777, -0.080444, -0.444031,0.050476, 0.095612, -0.012482
688, 6870000.000000,0.280029, 0.989258, -0.533813,-0.058777, -0.080444, -0.444031,0.050476, 0.095612, -0.012482
689, 6880000.000000,0.280029, 0.989258, -0.533813,-0.058777, -0.080444, -0.444031,0.050476, 0.095612, -0.012482
690, 6890000.000000,0.280029, 0.989258, -0.611542,-0.267578, -0.020721, -0.404114,0.047668, 0.095947, -0.005798
691, 6900000.000000,0.205444, 0.989258, -0.611542,-0.267578, -0.020721, -0.404114,0.047668, 0.095947, -0.005798
692, 6910000.000000,0.205444, 0.989258, -0.611542,-0.267578, -0.020721, -0.404114,0.047668, 0.095947, -0.005798
693, 6920000.000000,0.028381, 0.989258, -0.805054,-0.267578, -0.020721, -0.404114,0.047668, 0.095947, -0.005798
694, 6930000.000000,0.028381, 0.989258, -0.805054,-0.369598, -0.118958, 0.085266,0.044678, 0.092224, 0.002197
695, 6940000.000000,-0.083099, 0.989258, -0.793518,-0.369598, -0.118958, 0.085266,0.044678, 0.092224, 0.002197
696, 6950000.000000,-0.083099, 0.989258, -0.793518,-0.369598, -0.118958, 0.085266,0.044678, 0.092224, 0.002197
697, 6960000.000000,0.303528, 0.989258, -0.808258,-0.369598, -0.118958, 0.085266,0.044678, 0.092224, 0.002197
698, 6970000.000000,0.303528, 0.989258, -0.808258,0.872437, -0.014893, -0.977844,0.047516, 0.092377, 0.005524
699, 6980000.000000,0.303528, 0.981995, -0.994263,0.872437, -0.014893, -0.977844,0.047516, 0.092377, 0.005524
700, 6990000.000000,0.560089, 0.981995, -0.994263,0.872437, -0.014893, -0.977844,0.047516, 0.092377, 0.005524
701, 7000000.000000,0.213226, 0.899811, -0.826080,0.872437, -0.014893, -0.977844,0.047516, 0.092377, -0.002289
702, 7010000.000000,0.213226, 0.899811, -0.826080,-0.304657, -0.396271, -0.977905,0.045258, 0.090881, -0.003662
703, 7020000.000000,0.213226, 0.181061, -0.763763,-0.304657, -0.396271, -0.977905,0.045258, 0.090881, -0.003662
704, 7030000.000000,0.132812, 0.186279, -0.763763,-0.304657, -0.396271, -0.977905,0.045258, 0.090881, -0.003662
705, 7040000.000000,0.132812, 0.186279, -0.763763,-0.304657, -0.396271, -0.977905,0.045258, 0.090881, -0.003662
706, 7050000.000000,0.146118, -0.432281, -0.528015,-0.141724, -0.360962, -0.578278,0.039886, 0.091858, -0.000122
707, 7060000.000000,0.146118, -0.432281, -0.528015,-0.141724, -0.360962, -0.578278,0.039886, 0.091858, -0.000122
708, 7070000.000000,0.034271, -0.687897, -0.328583,-0.141724, -0.360962, -0.578278,0.039886, 0.091858, -0.000122
709, 7080000.000000,0.034271, -0.687897, -0.328583,-0.141724, -0.360962, -0.578278,0.039886, 0.091858, -0.000122
710, 7090000.000000,-0.136261, -0.844360, -0.038422,-0.122009, -0.399353, -0.179840,0.036377, 0.095520, -0.016479
711, 7100000.000000,-0.136261, -0.844360, -0.038422,-0.122009, -0.399353, -0.179840,0.036377, 0.095520, -0.016479
712, 7110000.000000,0.004364, -0.843781, 0.118805,-0.122009, -0.399353, -0.179840,0.036377, 0.095520, -0.016479
713, 7120000.000000,0.001984, -0.843781, 0.118805,-0.122009, -0.399353, -0.179840,0.036377, 0.095520, -0.016479
714, 7130000.000000,0.001984, -0.843781, 0.118805,-0.032990, -0.247681, -0.122284,0.034241, 0.101440, -0.024689
715, 7140000.000000,0.044037, -0.836578, 0.257843,-0.032990, -0.247681, -0.122284,0.034241, 0.101440, -0.024689
716, 7150000.000000,0.044037, -0.836578, 0.257843,-0.032990, -0.247681, -0.122284,0.034241, 0.101440, -0.024689
717, 7160000.000000,0.048615, -0.834015, 0.385742,-0.032990, -0.247681, -0.122284,0.034241, 0.101440, -0.024689
718, 7170000.000000,0.048615, -0.834015, 0.385742,0.006470, -0.120514, -0.170258,0.037415, 0.108185, -0.035706
719, 7180000.000000,0.067291, -0.832275, 0.470795,0.006470, -0.120514, -0.170258,0.037415, 0.108185, -0.035706
720, 7190000.000000,0.067291, -0.832275, 0.504150,0.006470, -0.120514, -0.170258,0.037415, 0.108185, -0.035706
721, 7200000.000000,0.118286, -0.859894, 0.504150,0.006470, -0.120514, -0.317657,0.043365, 0.118347, -0.042389
722, 7210000.000000,0.118286, -0.859894, 0.504150,0.057922, 0.044861, -0.317657,0.043365, 0.118347, -0.042389
723, 7220000.000000,0.184174, -0.939117, 0.484741,0.057922, 0.044861, -0.317657,0.043365, 0.118347, -0.042389
724, 7230000.000000,0.184174, -0.939117, 0.484741,0.057922, 0.044861, -0.317657,0.043365, 0.118347, -0.042389
725, 7240000.000000,0.249054, -0.996613, 0.429138,0.057922, 0.044861, -0.317657,0.043365, 0.130463, -0.061371
726, 7250000.000000,0.249054, -0.996613, 0.429138,0.103027, 0.130585, -0.355743,0.039520, 0.130463, -0.061371
727, 7260000.000000,0.292877, -1.000000, 0.355469,0.103027, 0.130585, -0.355743,0.039520, 0.130463, -0.061371
728, 7270000.000000,0.292877, -1.000000, 0.355469,0.103027, 0.130585, -0.355743,0.039520, 0.130463, -0.061371
729, 7280000.000000,0.292877, -1.000000, 0.355469,0.103027, 0.130585, -0.355743,0.039520, 0.130463, -0.061371
730, 7290000.000000,0.306091, -1.000000, 0.280396,0.128296, 0.142181, -0.296204,0.055206, 0.143433, -0.077911
731, 7300000.000000,0.306091, -1.000000, 0.280396,0.128296, 0.142181, -0.296204,0.055206, 0.143433, -0.077911
732, 7310000.000000,0.291779, -1.000000, 0.212372,0.128296, 0.142181, -0.296204,0.055206, 0.143433, -0.077911
733, 7320000.000000,0.291779, -1.000000, 0.212372,0.128296, 0.142181, -0.296204,0.055206, 0.143433, -0.077911
734, 7330000.000000,0.258392, -1.000000, 0.159882,0.153809, 0.120087, -0.300415,0.073486, 0.155548, -0.082825
735, 7340000.000000,0.258392, -1.000000, 0.159882,0.153809, 0.120087, -0.300415,0.073486, 0.155548, -0.082825
736, 7350000.000000,0.215973, -1.000000, 0.118256,0.153809, 0.120087, -0.300415,0.073486, 0.155548, -0.082825
737, 7360000.000000,0.215973, -1.000000, 0.118256,0.153809, 0.120087, -0.300415,0.073486, 0.155548, -0.082825
738, 7370000.000000,0.169098, -1.000000, 0.091400,0.189972, 0.068573, -0.348511,0.101471, 0.162140, -0.087036
739, 7380000.000000,0.168915, -1.000000, 0.091400,0.189972, 0.068573, -0.348511,0.101471, 0.162140, -0.087036
740, 7390000.000000,0.168915, -1.000000, 0.091400,0.189972, 0.068573, -0.348511,0.101471, 0.162140, -0.087036
741, 7400000.000000,0.125214, -1.000000, 0.083679,0.189972, 0.068573, -0.348511,0.101471, 0.162140, -0.055786
742, 7410000.000000,0.125214, -1.000000, 0.099304,0.210876, 0.017120, -0.344391,0.135986, 0.155670, -0.060577
743, 7420000.000000,0.103882, -1.000000, 0.095062,0.210876, 0.017120, -0.344391,0.135986, 0.155670, -0.060577
744, 7430000.000000,0.103882, -1.000000, 0.095062,0.210876, 0.017120, -0.344391,0.135986, 0.155670, -0.060577
745, 7440000.000000,0.102142, -1.000000, 0.123260,0.210876, 0.017120, -0.344391,0.135986, 0.145386, -0.039642
746, 7450000.000000,0.102142, -1.000000, 0.123260,0.232239, -0.009338, -0.362793,0.156982, 0.145386, -0.039642
747, 7460000.000000,0.092987, -1.000000, 0.159088,0.232239, -0.009338, -0.362793,0.156982, 0.145386, -0.039642
748, 7470000.000000,0.092987, -1.000000, 0.159088,0.232239, -0.009338, -0.362793,0.156982, 0.145386, -0.039642
749, 7480000.000000,0.075989, -1.000000, 0.194183,0.232239, -0.009338, -0.362793,0.156982, 0.145386, 0.015045
750, 7490000.000000,0.075989, -1.000000, 0.194183,0.251648, -0.030701, -0.391510,0.160034, 0.119049, 0.008972
751, 7500000.000000,0.075989, -1.000000, 0.224213,0.251648, -0.030701, -0.391510,0.160034, 0.119049, 0.008972
752, 7510000.000000,0.053558, -1.000000, 0.224213,0.251648, -0.030701, -0.391510,0.160034, 0.119049, 0.008972
753, 7520000.000000,0.053558, -1.000000, 0.224213,0.251648, -0.030701, -0.391510,0.160034, 0.119049, 0.008972
754, 7530000.000000,0.033173, -0.996216, 0.248932,0.309296, -0.051697, -0.481232,0.143738, 0.093750, 0.030884
755, 7540000.000000,0.033173, -0.996216, 0.248932,0.309296, -0.051697, -0.481232,0.143738, 0.093750, 0.030884
756, 7550000.000000,0.022614, -0.968048, 0.268372,0.309296, -0.051697, -0.481232,0.143738, 0.093750, 0.030884
757, 7560000.000000,0.022614, -0.968048, 0.268372,0.309296, -0.051697, -0.481232,0.143738, 0.093750, 0.030884
758, 7570000.000000,0.012054, -0.938385, 0.277130,0.397949, -0.074860, -0.567566,0.121460, 0.081055, 0.030457
759, 7580000.000000,0.012054, -0.938385, 0.277130,0.397949, -0.074860, -0.567566,0.121460, 0.081055, 0.030457
760, 7590000.000000,-0.002960, -0.919556, 0.274078,0.397949, -0.074860, -0.567566,0.121460, 0.081055, 0.030457
761, 7600000.000000,-0.002960, -0.919556, 0.274078,0.397949, -0.074860, -0.567566,0.121460, 0.076202, 0.026978
762, 7610000.000000,0.001740, -0.908325, 0.271484,0.515747, -0.086975, -0.515656,0.111115, 0.076202, 0.026978
763, 7620000.000000,0.001740, -0.908325, 0.271484,0.515747, -0.086975, -0.515656,0.111115, 0.076202, 0.026978
764, 7630000.000000,0.096802, -0.886902, 0.270111,0.515747, -0.086975, -0.515656,0.111115, 0.076202, 0.026978
765, 7640000.000000,0.096802, -0.886902, 0.270111,0.515747, -0.086975, -0.515656,0.111115, 0.076202, 0.026978
766, 7650000.000000,0.096802, -0.886902, 0.270111,0.636536, -0.092957, -0.289093,0.104004, 0.075104, 0.024567
767, 7660000.000000,0.208344, -0.828369, 0.279419,0.636536, -0.092957, -0.289093,0.104004, 0.075104, 0.024567
768, 7670000.000000,0.208344, -0.828369, 0.279419,0.636536, -0.092957, -0.289093,0.104004, 0.075104, 0.024567
769, 7680000.000000,0.183289, -0.746521, 0.326447,0.636536, -0.092957, -0.289093,0.104004, 0.075104, 0.024567
770, 7690000.000000,0.183289, -0.746521, 0.326447,0.766357, -0.174622, -0.019592,0.098511, 0.069031, 0.020935
771, 7700000.000000,0.183289, -0.746521, 0.440979,0.766357, -0.174622, -0.019592,0.098511, 0.069031, 0.020935
772, 7710000.000000,0.092224, -0.622253, 0.440979,0.766357, -0.174622, -0.019592,0.098511, 0.069031, 0.020935
773, 7720000.000000,0.092224, -0.622253, 0.440979,0.766357, -0.174622, -0.019592,0.098511, 0.069031, 0.020935
774, 7730000.000000,0.047333, -0.399475, 0.427979,0.766357, -0.174622, -0.019592,0.098511, 0.076843, 0.019348
775, 7740000.000000,0.047333, -0.399475, 0.427979,0.832153, 0.123657, 0.892212,0.096771, 0.073181, 0.019348
776, 7750000.000000,0.120941, 0.244843, 0.354462,0.832153, 0.123657, 0.892212,0.096771, 0.073181, 0.019348
777, 7760000.000000,0.120941, 0.244843, 0.354462,0.832153, 0.123657, 0.892212,0.096771, 0.073181, 0.019348
778, 7770000.000000,0.123444, 0.675201, 0.183685,0.832153, 0.123657, 0.892212,0.096771, 0.072815, 0.020508
779, 7780000.000000,0.123444, 0.675201, 0.183685,-0.033691, 0.018341, 0.285980,0.094879, 0.072815, 0.020508
780, 7790000.000000,0.123444, 0.675201, 0.034210,-0.033691, 0.018341, 0.285980,0.094879, 0.072815, 0.020508
781, 7800000.000000,0.060883, 0.891449, 0.034210,-0.033691, 0.018341, 0.285980,0.094879, 0.072815, 0.020508
782, 7810000.000000,0.058655, 0.972137, 0.075348,0.357758, -0.085144, -0.750824,0.097412, 0.074646, 0.012207
783, 7820000.000000,0.058655, 0.972137, 0.075348,0.357758, -0.085144, -0.750824,0.097412, 0.074646, 0.012207
784, 7830000.000000,0.058655, 0.972137, 0.137817,0.357758, -0.085144, -0.750824,0.097412, 0.074646, 0.012207
785, 7840000.000000,0.006470, 0.767609, 0.137817,0.357758, -0.085144, -0.750824,0.097412, 0.074646, 0.012207
786, 7850000.000000,0.006470, 0.767609, 0.137817,-0.046997, 0.064972, -0.254547,0.092743, 0.076721, 0.010071
787, 7860000.000000,-0.113037, 0.688263, 0.115906,-0.046997, 0.064972, -0.254547,0.092743, 0.076721, 0.010071
788, 7870000.000000,-0.113037, 0.688263, 0.115906,-0.046997, 0.064972, -0.254547,0.092743, 0.076721, 0.010071
789, 7880000.000000,-0.084412, 0.778809, 0.081512,-0.046997, 0.064972, -0.254547,0.092743, 0.076721, 0.010071
790, 7890000.000000,-0.084412, 0.778809, 0.081512,-0.078247, 0.118225, -0.551270,0.096466, 0.078674, 0.008636
791, 7900000.000000,-0.102417, 0.805817, 0.053802,-0.085083, 0.118225, -0.551270,0.096466, 0.078674, 0.008636
792, 7910000.000000,-0.102417, 0.805817, 0.053802,-0.085083, 0.118225, -0.551270,0.096466, 0.078674, 0.008636
793, 7920000.000000,-0.102417, 0.741699, 0.097046,-0.085083, 0.118225, -0.551270,0.096466, 0.078674, 0.008636
794, 7930000.000000,-0.409454, 0.741699, 0.097046,-0.085083, 0.118225, -0.301514,0.095612, 0.080048, 0.000946
795, 7940000.000000,-0.409454, 0.741699, 0.097046,-0.002747, -0.000732, -0.301514,0.095612, 0.080048, 0.000946
796, 7950000.000000,-0.367859, 0.118958, 0.054901,-0.002747, -0.000732, -0.301514,0.095612, 0.080048, 0.000946
797, 7960000.000000,-0.367859, 0.118958, 0.054901,-0.002747, -0.000732, -0.301514,0.095612, 0.080048, 0.000946
798, 7970000.000000,-0.183990, 0.136993, 0.011841,-0.002747, -0.000732, -0.301514,0.095612, 0.083191, -0.001801
799, 7980000.000000,-0.183990, 0.136993, 0.011841,-0.051056, 0.022705, -0.216705,0.096405, 0.083191, -0.001801
800, 7990000.000000,-0.058197, 0.077881, 0.017334,-0.051056, 0.022705, -0.216705,0.096405, 0.083191, -0.001801
801, 8000000.000000,-0.058197, 0.077881, 0.017334,-0.051056, 0.022705, -0.216705,0.096405, 0.083191, -0.001801
802, 8010000.000000,-0.050781, 0.057098, 0.008331,-0.051056, 0.022705, -0.216705,0.095123, 0.079193, -0.002747
803, 8020000.000000,-0.050781, 0.057098, 0.008331,-0.016876, -0.001648, -0.278412,0.095123, 0.079193, -0.002747
804, 8030000.000000,-0.030884, 0.035767, 0.001740,-0.016876, -0.001648, -0.278412,0.095123, 0.079193, -0.002747
805, 8040000.000000,-0.030884, 0.035767, 0.001740,-0.016876, -0.001648, -0.278412,0.095123, 0.079193, -0.002747
806, 8050000.000000,-0.033142, 0.025299, -0.003326,-0.020233, -0.021851, -0.266754,0.095642, 0.079620, 0.006104
807, 8060000.000000,-0.033142, 0.025299, -0.003326,-0.020233, -0.021851, -0.266754,0.095642, 0.079620, 0.006104
808, 8070000.000000,-0.033142, 0.017487, -0.009796,-0.020233, -0.021851, -0.266754,0.095642, 0.079620, 0.006104
809, 8080000.000000,-0.034332, 0.019104, -0.009796,-0.020233, -0.021851, -0.266754,0.095642, 0.079620, 0.006104
810, 8090000.000000,-0.034332, 0.019104, -0.009796,-0.028046, -0.017029, -0.255524,0.095612, 0.081085, -0.006744
811, 8100000.000000,-0.037323, 0.028259, -0.015015,-0.027069, -0.017029, -0.255524,0.095612, 0.081085, -0.006744
812, 8110000.000000,-0.037323, 0.028259, -0.015015,-0.027069, -0.017029, -0.255524,0.095612, 0.081085, -0.006744
813, 8120000.000000,-0.040710, 0.036499, -0.019226,-0.027069, -0.017029, -0.255524,0.095612, 0.081085, -0.006744
814, 8130000.000000,-0.040710, 0.036499, -0.019226,-0.027069, -0.012878, -0.251465,0.092987, 0.080536, -0.002533
815, 8140000.000000,-0.049042, 0.050446, -0.024078,-0.028015, -0.012878, -0.251465,0.092987, 0.080536, -0.002533
816, 8150000.000000,-0.049042, 0.050446, -0.024078,-0.028015, -0.012878, -0.251465,0.092987, 0.080536, -0.002533
817, 8160000.000000,-0.049042, 0.058258, -0.027344,-0.028015, -0.012878, -0.251465,0.092987, 0.080536, -0.002533
818, 8170000.000000,-0.038269, 0.054993, -0.027344,-0.028015, -0.012878, -0.251465,0.092987, 0.081879, -0.003937
819, 8180000.000000,-0.038269, 0.054993, -0.027344,-0.016541, -0.004364, -0.276154,0.093048, 0.081879, -0.003937
820, 8190000.000000,-0.016235, 0.043579, -0.026825,-0.016541, -0.004364, -0.276154,0.093048, 0.081879, -0.003937
821, 8200000.000000,-0.016235, 0.043579, -0.026825,-0.016541, -0.004364, -0.276154,0.093048, 0.081879, -0.003937
822, 8210000.000000,-0.001740, 0.034393, -0.022247,-0.016541, -0.004364, -0.276154,0.093048, 0.081879, 0.006287
823, 8220000.000000,-0.001740, 0.034393, -0.022247,-0.014099, -0.013947, -0.267151,0.091003, 0.081055, 0.006287
824, 8230000.000000,0.009979, 0.023682, -0.016571,-0.014099, -0.013947, -0.267151,0.091003, 0.081055, 0.006287
825, 8240000.000000,0.009979, 0.023682, -0.016571,-0.014099, -0.013947, -0.267151,0.091003, 0.081055, 0.006287
826, 8250000.000000,0.010040, 0.018066, -0.011261,-0.014099, -0.021759, -0.262482,0.092773, 0.079376, -0.007751
827, 8260000.000000,0.010040, 0.018066, -0.011261,-0.020599, -0.022858, -0.262482,0.092773, 0.079376, -0.007751
828, 8270000.000000,0.010040, 0.018585, -0.012329,-0.020599, -0.022858, -0.262482,0.092773, 0.079376, -0.007751
829, 8280000.000000,0.008118, 0.018585, -0.012329,-0.020599, -0.022858, -0.262482,0.092773, 0.079376, -0.007751
830, 8290000.000000,0.008118, 0.018585, -0.012329,-0.020599, -0.022858, -0.262482,0.092773, 0.080750, -0.001434
831, 8300000.000000,-0.013123, 0.020782, -0.013153,-0.022614, -0.016632, -0.257111,0.092285, 0.080750, -0.001434
832, 8310000.000000,-0.013123, 0.020782, -0.013153,-0.022614, -0.016632, -0.257111,0.092285, 0.080750, -0.001434
833, 8320000.000000,-0.010498, 0.023438, -0.013184,-0.022614, -0.016632, -0.257111,0.092285, 0.080750, -0.001434
834, 8330000.000000,-0.010498, 0.023438, -0.013184,-0.022614, -0.016632, -0.260254,0.097961, 0.078705, -0.003265
835, 8340000.000000,-0.007294, 0.024445, -0.015198,-0.019897, -0.016418, -0.260254,0.097961, 0.078705, -0.003265
836, 8350000.000000,-0.007294, 0.024445, -0.015198,-0.019897, -0.016418, -0.260254,0.097961, 0.078705, -0.003265
837, 8360000.000000,-0.008484, 0.020477, -0.014679,-0.019897, -0.016418, -0.260254,0.097961, 0.078705, -0.003265
838, 8370000.000000,-0.008484, 0.020477, -0.014679,-0.019897, -0.016418, -0.260254,0.086395, 0.079651, 0.001282
839, 8380000.000000,0.000916, 0.023224, -0.014587,-0.021454, -0.017090, -0.256927,0.086395, 0.079651, 0.001282
840, 8390000.000000,0.000916, 0.023224, -0.014587,-0.021454, -0.017090, -0.256927,0.086395, 0.079651, 0.001282
841, 8400000.000000,0.000916, 0.023224, -0.022400,-0.021454, -0.017090, -0.256927,0.086395, 0.079651, 0.001282
842, 8410000.000000,-0.000732, 0.024017, -0.016235,-0.021454, -0.017090, -0.256927,0.086395, 0.079651, -0.014343
843, 8420000.000000,-0.000732, 0.024017, -0.016235,-0.024689, -0.016724, -0.254150,0.095856, 0.081940, -0.008484
844, 8430000.000000,-0.004181, 0.029175, -0.016327,-0.024689, -0.016724, -0.254150,0.095856, 0.081940, -0.008484
845, 8440000.000000,-0.004181, 0.029175, -0.016327,-0.024689, -0.016724, -0.254150,0.095856, 0.081940, -0.008484
846, 8450000.000000,-0.001587, 0.038239, -0.021362,-0.024689, -0.016724, -0.254150,0.089722, 0.080933, -0.001526
847, 8460000.000000,-0.001587, 0.038239, -0.021362,-0.022125, -0.017426, -0.253845,0.089722, 0.080933, -0.001526
848, 8470000.000000,-0.005951, 0.043030, -0.028290,-0.022125, -0.017426, -0.253845,0.089722, 0.080933, -0.001526
849, 8480000.000000,-0.005951, 0.043030, -0.028290,-0.022125, -0.017426, -0.253845,0.089722, 0.080933, -0.001526
850, 8490000.000000,-0.006439, 0.056519, -0.026978,-0.022125, -0.011414, -0.244751,0.092255, 0.080994, -0.004639
851, 8500000.000000,-0.006439, 0.056519, -0.026978,-0.033081, -0.011414, -0.244751,0.092255, 0.080994, -0.004639
852, 8510000.000000,0.005920, 0.078552, -0.022400,-0.033081, -0.011414, -0.244751,0.092255, 0.080994, -0.004639
853, 8520000.000000,0.005920, 0.078552, -0.022400,-0.033081, -0.011414, -0.244751,0.092255, 0.080994, -0.004639
854, 8530000.000000,0.005920, 0.078552, -0.021057,-0.033081, -0.011414, -0.251495,0.096466, 0.077637, -0.005493
855, 8540000.000000,0.025085, 0.078522, -0.021057,-0.020325, -0.012573, -0.251495,0.096466, 0.077637, -0.005493
856, 8550000.000000,0.025085, 0.078522, -0.021057,-0.020325, -0.012573, -0.251495,0.096466, 0.077637, -0.005493
857, 8560000.000000,0.030090, 0.081360, -0.023499,-0.020325, -0.012573, -0.251495,0.096466, 0.077637, -0.005493
858, 8570000.000000,0.030090, 0.081360, -0.023499,-0.020325, -0.012573, -0.251495,0.096466, 0.085449, -0.007111
859, 8580000.000000,0.024597, 0.082550, -0.015625,-0.016296, -0.017181, -0.256836,0.096100, 0.080627, -0.007111
860, 8590000.000000,0.024597, 0.082550, -0.015625,-0.016296, -0.017181, -0.256836,0.096100, 0.080627, -0.007111
861, 8600000.000000,0.026978, 0.082703, -0.013245,-0.016296, -0.017181, -0.256836,0.096100, 0.080627, -0.007111
862, 8610000.000000,0.026978, 0.082703, -0.013245,-0.016296, -0.017181, -0.256836,0.096100, 0.080627, -0.007111
863, 8620000.000000,0.026978, 0.082703, -0.021057,-0.014832, -0.014557, -0.256378,0.094208, 0.080078, -0.014313
864, 8630000.000000,0.038727, 0.083221, -0.015686,-0.014832, -0.014557, -0.256378,0.094208, 0.080078, -0.014313
865, 8640000.000000,0.039581, 0.081879, -0.011108,-0.014832, -0.014557, -0.256378,0.094208, 0.080078, -0.014313
866, 8650000.000000,0.039581, 0.081879, -0.011108,-0.012390, -0.021240, -0.254578,0.093811, 0.079224, -0.005188
867, 8660000.000000,0.036407, 0.081940, -0.014343,-0.012390, -0.021240, -0.254578,0.093811, 0.079224, -0.005188
868, 8670000.000000,0.036407, 0.081940, -0.014343,-0.012390, -0.021240, -0.254578,0.093811, 0.079224, -0.005188
869, 8680000.000000,0.036407, 0.089752, -0.019897,-0.012390, -0.021240, -0.254578,0.093811, 0.079224, -0.005188
870, 8690000.000000,0.032074, 0.090057, -0.019897,0.005157, -0.020752, -0.271820,0.093140, 0.079590, -0.001434
871, 8700000.000000,0.032074, 0.090057, -0.019897,0.005157, -0.020752, -0.271820,0.093140, 0.079590, -0.001434
872, 8710000.000000,0.049805, 0.084351, -0.025574,0.005157, -0.020752, -0.271820,0.093140, 0.079590, -0.001434
873, 8720000.000000,0.049805, 0.084351, -0.025574,0.005157, -0.020752, -0.271820,0.093140, 0.079590, -0.001434
874, 8730000.000000,0.041901, 0.058960, -0.028259,-0.002014, -0.026947, -0.263306,0.091064, 0.077972, 0.000824
875, 8740000.000000,0.041901, 0.058960, -0.028259,-0.002014, -0.026947, -0.263306,0.091064, 0.077972, 0.000824
876, 8750000.000000,0.028625, 0.052307, -0.029388,-0.002014, -0.026947, -0.263306,0.091064, 0.077972, 0.000824
877, 8760000.000000,0.028625, 0.052307, -0.029388,-0.002014, -0.026947, -0.263306,0.091064, 0.077972, 0.000824
878, 8770000.000000,0.048187, 0.042419, -0.028717,-0.003998, -0.026611, -0.263672,0.086487, 0.079712, -0.010590
879, 8780000.000000,0.048187, 0.042419, -0.028717,-0.003998, -0.026611, -0.263672,0.086487, 0.079712, -0.010590
880, 8790000.000000,0.048187, 0.034607, -0.019867,-0.003998, -0.026611, -0.263672,0.086487, 0.079712, -0.010590
881, 8800000.000000,0.038116, 0.036102, -0.019867,-0.003998, -0.026611, -0.263672,0.086487, 0.079712, -0.010590
882, 8810000.000000,0.038116, 0.036102, -0.019867,-0.003998, -0.026611, -0.256989,0.090393, 0.081573, -0.006866
883, 8820000.000000,0.034698, 0.035645, -0.015869,-0.008362, -0.024933, -0.256989,0.090393, 0.081573, -0.006866
884, 8830000.000000,0.034698, 0.035645, -0.015869,-0.008362, -0.024933, -0.256989,0.090393, 0.081573, -0.006866
885, 8840000.000000,0.035431, 0.040161, -0.008667,-0.008362, -0.024933, -0.256989,0.090393, 0.081573, -0.006866
886, 8850000.000000,0.035431, 0.040161, -0.008667,-0.008362, -0.027039, -0.259766,0.084595, 0.078247, -0.001678
887, 8860000.000000,0.024567, 0.048035, 0.001373,-0.010040, -0.027039, -0.259766,0.084595, 0.078247, -0.001678
888, 8870000.000000,0.024567, 0.048035, 0.001373,-0.010040, -0.027039, -0.259766,0.084595, 0.078247, -0.001678
889, 8880000.000000,0.023224, 0.056946, 0.011230,-0.010040, -0.027039, -0.259766,0.084595, 0.078247, -0.001678
890, 8890000.000000,0.023224, 0.056946, 0.011230,-0.010040, -0.029053, -0.258087,0.091125, 0.080017, -0.002869
891, 8900000.000000,0.016815, 0.067017, 0.020325,-0.010925, -0.029053, -0.258087,0.091125, 0.080017, -0.002869
892, 8910000.000000,0.016815, 0.067017, 0.020325,-0.010925, -0.029053, -0.258087,0.091125, 0.080017, -0.002869
893, 8920000.000000,0.016815, 0.067017, 0.020325,-0.010925, -0.029053, -0.258087,0.091125, 0.080017, -0.002869
894, 8930000.000000,0.006317, 0.081909, 0.027313,-0.010925, -0.029053, -0.257080,0.094086, 0.080048, -0.003693
895, 8940000.000000,0.006317, 0.081909, 0.027313,-0.011597, -0.033539, -0.257080,0.094086, 0.080048, -0.003693
896, 8950000.000000,0.000275, 0.105499, 0.023132,-0.011597, -0.033539, -0.257080,0.094086, 0.080048, -0.003693
897, 8960000.000000,0.000275, 0.105499, 0.023132,-0.011597, -0.033539, -0.257080,0.094086, 0.080048, -0.003693
898, 8970000.000000,-0.016876, 0.130890, 0.007111,-0.011597, -0.033539, -0.257080,0.094086, 0.077850, -0.004395
899, 8980000.000000,-0.016876, 0.130890, 0.007111,-0.009857, -0.025146, -0.256317,0.097076, 0.077850, -0.004395
900, 8990000.000000,-0.027954, 0.152802, 0.003357,-0.009857, -0.025146, -0.256317,0.097076, 0.077850, -0.004395
901, 9000000.000000,-0.027954, 0.152802, 0.003357,-0.009857, -0.025146, -0.256317,0.097076, 0.077850, -0.004395
902, 9010000.000000,-0.027954, 0.152802, -0.012268,-0.009857, -0.025146, -0.256317,0.097076, 0.080841, -0.007446
903, 9020000.000000,-0.034729, 0.198090, -0.015289,-0.016785, -0.023560, -0.259430,0.091064, 0.080841, -0.007446
904, 9030000.000000,-0.034729, 0.198090, -0.015289,-0.016785, -0.023560, -0.259430,0.091064, 0.080841, -0.007446
905, 9040000.000000,-0.038910, 0.243744, -0.037964,-0.016785, -0.023560, -0.259430,0.091064, 0.080841, -0.007446
906, 9050000.000000,-0.038910, 0.243744, -0.171906,-0.227386, -0.006409, -0.250671,0.089722, 0.080811, -0.007599
907, 9060000.000000,-0.039459, 0.227661, -0.171906,-0.227386, -0.006409, -0.250671,0.089722, 0.080811, -0.007599
908, 9070000.000000,-0.039459, 0.227661, -0.171906,-0.227386, -0.006409, -0.250671,0.089722, 0.080811, -0.007599
909, 9080000.000000,0.040649, 0.409485, -0.323425,-0.227386, -0.006409, -0.250671,0.089722, 0.080811, -0.007599
910, 9090000.000000,0.040649, 0.409485, -0.323425,0.079987, -0.048523, -0.444794,0.093414, 0.080994, -0.007385
911, 9100000.000000,0.221954, 0.909760, -0.155426,0.079987, -0.048523, -0.444794,0.093414, 0.080994, -0.007385
912, 9110000.000000,0.221954, 0.909760, -0.155426,0.079987, -0.048523, -0.444794,0.093414, 0.080994, -0.007385
913, 9120000.000000,0.449402, 0.989258, -0.452820,0.079987, -0.048523, -0.444794,0.093414, 0.080994, -0.007385
914, 9130000.000000,0.449402, 0.989258, -0.452820,-0.084076, -0.135223, -0.454498,0.089874, 0.082672, -0.006409
915, 9140000.000000,0.397675, 0.989258, -0.655701,-0.080719, -0.135223, -0.454498,0.089874, 0.082672, -0.006409
916, 9150000.000000,0.397675, 0.989258, -0.655701,-0.080719, -0.135223, -0.454498,0.089874, 0.082672, -0.006409
917, 9160000.000000,0.397675, 0.989258, -0.679260,-0.080719, -0.135223, -0.454498,0.089874, 0.082672, -0.006409
918, 9170000.000000,0.434631, 0.989258, -0.679260,-0.252594, -0.026184, -0.426453,0.089752, 0.083771, -0.016602
919, 9180000.000000,0.434631, 0.989258, -0.679260,-0.255615, -0.026184, -0.426453,0.089752, 0.083771, -0.016602
920, 9190000.000000,0.282745, 0.989258, -0.811676,-0.255615, -0.026184, -0.426453,0.089752, 0.083771, -0.016602
921, 9200000.000000,0.282745, 0.989258, -0.811676,-0.255615, -0.026184, -0.426453,0.089752, 0.083771, -0.016602
922, 9210000.000000,-0.005371, 0.989258, -0.934814,-0.255615, -0.096497, -0.127502,0.083038, 0.081177, -0.018066
923, 9220000.000000,-0.005371, 0.989258, -0.934814,-0.549622, -0.096191, -0.127502,0.083038, 0.081177, -0.018066
924, 9230000.000000,0.054962, 0.989258, -0.738831,-0.549622, -0.096191, -0.127502,0.083038, 0.081177, -0.018066
925, 9240000.000000,0.054962, 0.989258, -0.738831,-0.549622, -0.096191, -0.127502,0.083038, 0.081177, -0.018066
926, 9250000.000000,0.054962, 0.987976, -0.667236,-0.549622, -0.096191, -0.994690,0.081696, 0.083069, -0.020142
927, 9260000.000000,0.483673, 0.987976, -0.667236,0.867554, -0.148193, -0.996338,0.081696, 0.083069, -0.020142
928, 9270000.000000,0.483673, 0.987976, -0.667236,0.867554, -0.148193, -0.996338,0.081696, 0.083069, -0.020142
929, 9280000.000000,0.074249, 0.987183, -0.852631,0.867554, -0.148193, -0.996338,0.081696, 0.083069, -0.020142
930, 9290000.000000,0.074249, 0.987183, -0.852631,0.867554, -0.343506, -0.999756,0.081451, 0.082458, -0.019714
931, 9300000.000000,-0.018433, 0.600128, -0.718719,-0.285980, -0.338074, -0.999756,0.081451, 0.082458, -0.019714
932, 9310000.000000,-0.018433, 0.600128, -0.718719,-0.285980, -0.338074, -0.999756,0.081451, 0.082458, -0.019714
933, 9320000.000000,-0.054749, -0.243652, -0.424988,-0.285980, -0.338074, -0.999756,0.081451, 0.082458, -0.019714
934, 9330000.000000,-0.054749, -0.243652, -0.424988,-0.285980, -0.221558, -0.482666,0.084442, 0.082794, -0.020386
935, 9340000.000000,0.071228, -0.566956, -0.277069,-0.127838, -0.221558, -0.482666,0.084442, 0.082794, -0.020386
936, 9350000.000000,0.071228, -0.566956, -0.277069,-0.127838, -0.221558, -0.482666,0.084442, 0.082794, -0.020386
937, 9360000.000000,0.063660, -0.766754, -0.146851,-0.127838, -0.221558, -0.482666,0.084442, 0.082794, -0.020386
938, 9370000.000000,0.063660, -0.766754, -0.146851,-0.127838, -0.221558, -0.154846,0.086151, 0.083466, -0.018616
939, 9380000.000000,0.063660, -0.766754, -0.045288,-0.097046, -0.171753, -0.154846,0.086151, 0.083466, -0.018616
940, 9390000.000000,0.020599, -0.809845, -0.040558,-0.097046, -0.171753, -0.154846,0.086151, 0.083466, -0.018616
941, 9400000.000000,0.020599, -0.809845, -0.040558,-0.097046, -0.171753, -0.154846,0.086151, 0.083466, -0.018616
942, 9410000.000000,-0.026276, -0.817749, 0.039185,-0.097046, -0.171753, -0.154846,0.086151, 0.082764, -0.015411
943, 9420000.000000,-0.026276, -0.817749, 0.039185,-0.032227, -0.083252, -0.179138,0.089417, 0.082764, -0.015411
944, 9430000.000000,-0.064850, -0.831696, 0.069031,-0.032227, -0.083252, -0.179138,0.089417, 0.082764, -0.015411
945, 9440000.000000,-0.064850, -0.831696, 0.069031,-0.032227, -0.083252, -0.179138,0.089417, 0.082764, -0.015411
946, 9450000.000000,-0.052368, -0.883514, 0.065369,0.022461, 0.005066, -0.228851,0.090515, 0.078522, -0.015289
947, 9460000.000000,-0.052368, -0.883514, 0.065369,0.021179, 0.005066, -0.228851,0.090515, 0.078522, -0.015289
948, 9470000.000000,0.007172, -0.949463, 0.026398,0.021179, 0.005066, -0.228851,0.090515, 0.078522, -0.015289
949, 9480000.000000,0.007172, -0.949463, 0.026398,0.021179, 0.005066, -0.228851,0.090515, 0.078522, -0.015289
950, 9490000.000000,0.078735, -0.992920, -0.037811,0.054108, 0.020325, -0.188843,0.090118, 0.077026, -0.003296
951, 9500000.000000,0.078735, -0.992920, -0.037811,0.054108, 0.020325, -0.188843,0.090118, 0.077026, -0.003296
952, 9510000.000000,0.148010, -1.000000, -0.088776,0.054108, 0.020325, -0.188843,0.090118, 0.077026, -0.003296
953, 9520000.000000,0.148010, -1.000000, -0.088776,0.054108, 0.020325, -0.188843,0.090118, 0.077026, -0.003296
954, 9530000.000000,0.198273, -1.000000, -0.126373,0.083466, -0.017944, -0.175873,0.077209, 0.070709, 0.007874
955, 9540000.000000,0.198273, -1.000000, -0.126373,0.083466, -0.017944, -0.175873,0.077209, 0.070709, 0.007874
956, 9550000.000000,0.198273, -1.000000, -0.140320,0.083466, -0.017944, -0.175873,0.077209, 0.070709, 0.007874
957, 9560000.000000,0.228149, -1.000000, -0.140320,0.083466, -0.017944, -0.175873,0.077209, 0.070709, 0.007874
958, 9570000.000000,0.228149, -1.000000, -0.140320,0.123077, -0.119110, -0.232300,0.061005, 0.063812, 0.004486
959, 9580000.000000,0.232697, -0.999695, -0.117767,0.123077, -0.119110, -0.232300,0.061005, 0.063812, 0.004486
960, 9590000.000000,0.232697, -0.999695, -0.117767,0.123077, -0.119110, -0.232300,0.061005, 0.063812, 0.004486
961, 9600000.000000,0.216583, -0.999573, -0.053070,0.123077, -0.119110, -0.232300,0.061005, 0.063812, 0.004486
962, 9610000.000000,0.216583, -0.999573, -0.053070,0.160950, -0.178192, -0.274384,0.039185, 0.064270, -0.006104
963, 9620000.000000,0.193634, -0.999817, 0.036377,0.160950, -0.178192, -0.274384,0.039185, 0.064270, -0.006104
964, 9630000.000000,0.193634, -0.999817, 0.036377,0.160950, -0.178192, -0.274384,0.039185, 0.064270, -0.006104
965, 9640000.000000,0.179138, -0.998871, 0.136780,0.160950, -0.178192, -0.274384,0.039185, 0.064270, -0.006104
966, 9650000.000000,0.179138, -0.998871, 0.136780,0.190735, -0.179474, -0.282196,0.024261, 0.070923, -0.027405
967, 9660000.000000,0.179718, -0.995667, 0.241394,0.190735, -0.179474, -0.282196,0.024261, 0.070923, -0.027405
968, 9670000.000000,0.179718, -0.995667, 0.241394,0.190735, -0.179474, -0.282196,0.024261, 0.070923, -0.027405
969, 9680000.000000,0.190918, -0.981995, 0.342407,0.190735, -0.179474, -0.282196,0.024261, 0.070923, -0.027405
970, 9690000.000000,0.190918, -0.981995, 0.342407,0.196320, -0.145386, -0.258484,0.029236, 0.079376, -0.044342
971, 9700000.000000,0.190918, -0.981995, 0.436157,0.196320, -0.145386, -0.258484,0.029236, 0.079376, -0.044342
972, 9710000.000000,0.200195, -0.947479, 0.432373,0.196320, -0.145386, -0.258484,0.029236, 0.079376, -0.044342
973, 9720000.000000,0.200195, -0.947479, 0.432373,0.196320, -0.145386, -0.258484,0.029236, 0.079376, -0.044342
974, 9730000.000000,0.197174, -0.901733, 0.501526,0.200439, -0.055206, -0.261353,0.028931, 0.086426, -0.056183
975, 9740000.000000,0.197174, -0.901733, 0.501526,0.200439, -0.055206, -0.261353,0.028931, 0.086426, -0.056183
976, 9750000.000000,0.196350, -0.848022, 0.539948,0.200439, -0.055206, -0.261353,0.028931, 0.086426, -0.056183
977, 9760000.000000,0.196350, -0.848022, 0.539948,0.200439, -0.055206, -0.261353,0.028931, 0.086426, -0.056183
978, 9770000.000000,0.203217, -0.788330, 0.551819,0.204285, 0.011047, -0.317688,0.032410, 0.090607, -0.059631
979, 9780000.000000,0.203217, -0.788330, 0.551819,0.204285, 0.011047, -0.317688,0.032410, 0.090607, -0.059631
980, 9790000.000000,0.203217, -0.788330, 0.551819,0.204285, 0.011047, -0.317688,0.032410, 0.090607, -0.059631
981, 9800000.000000,0.200409, -0.736420, 0.548889,0.204285, 0.011047, -0.317688,0.032410, 0.090607, -0.059631
982, 9810000.000000,0.200409, -0.736420, 0.548889,0.197327, -0.002808, -0.391357,0.040833, 0.091278, -0.061981
983, 9820000.000000,0.184174, -0.694885, 0.544098,0.197327, -0.002808, -0.391357,0.040833, 0.091278, -0.061981
984, 9830000.000000,0.184174, -0.694885, 0.544098,0.197327, -0.002808, -0.391357,0.040833, 0.091278, -0.061981
985, 9840000.000000,0.145020, -0.663849, 0.547974,0.197327, -0.002808, -0.391357,0.040833, 0.091278, -0.061981
986, 9850000.000000,0.145020, -0.663849, 0.547974,0.197327, -0.002808, -0.470184,0.038239, 0.093506, -0.077332
987, 9860000.000000,0.096527, -0.645233, 0.553009,0.221130, -0.012756, -0.470184,0.038239, 0.093506, -0.077332
988, 9870000.000000,0.096527, -0.645233, 0.553009,0.221130, -0.012756, -0.470184,0.038239, 0.093506, -0.077332
989, 9880000.000000,0.067810, -0.643921, 0.543427,0.221130, -0.012756, -0.470184,0.038239, 0.093506, -0.077332
990, 9890000.000000,0.067810, -0.643921, 0.543427,0.326843, -0.009064, -0.556366,0.043457, 0.096863, -0.087708
991, 9900000.000000,0.067810, -0.643921, 0.518280,0.326843, -0.009064, -0.556366,0.043457, 0.096863, -0.087708
992, 9910000.000000,0.056458, -0.666840, 0.518280,0.326843, -0.009064, -0.556366,0.043457, 0.096863, -0.087708
993, 9920000.000000,0.056458, -0.666840, 0.518280,0.326843, -0.009064, -0.556366,0.043457, 0.096863, -0.087708
994, 9930000.000000,0.059540, -0.709015, 0.483551,0.445587, 0.038055, -0.584564,0.050262, 0.100830, -0.093628
995, 9940000.000000,0.059540, -0.709015, 0.483551,0.445587, 0.038055, -0.584564,0.050262, 0.100830, -0.093628
996, 9950000.000000,0.114838, -0.772919, 0.431488,0.445587, 0.038055, -0.584564,0.050262, 0.100830, -0.093628
997, 9960000.000000,0.114838, -0.772919, 0.431488,0.445587, 0.038055, -0.584564,0.050262, 0.100830, -0.093628
998, 9970000.000000,0.173706, -0.838257, 0.354584,0.445587, 0.035736, -0.496307,0.058777, 0.105042, -0.088562
999, 9980000.000000,0.173706, -0.838257, 0.354584,0.579865, 0.035736, -0.496307,0.058777, 0.105042, -0.088562
1000, 9990000.000000,0.197083, -0.896851, 0.284943,0.579865, 0.035736, -0.496307,0.058777, 0.105042, -0.088562
1001, 10000000.000000,0.197083, -0.896851, 0.284943,0.579865, 0.035736, -0.496307,0.058777, 0.105042, -0.088562
1002, 10010000.000000,0.197083, -0.896851, 0.284943,0.579865, 0.003235, -0.194092,0.072968, 0.102051, -0.079102
1003, 10020000.000000,0.209106, -0.916534, 0.285370,0.750946, 0.003235, -0.194092,0.072968, 0.102051, -0.079102
1004, 10030000.000000,0.209106, -0.916534, 0.285370,0.750946, 0.003235, -0.194092,0.072968, 0.102051, -0.079102
1005, 10040000.000000,0.152710, -0.807648, 0.176575,0.750946, 0.003235, -0.194092,0.072968, 0.102051, -0.079102
1006, 10050000.000000,0.152710, -0.807648, 0.176575,0.750946, 0.003235, 0.084717,0.077209, 0.103455, -0.084351
1007, 10060000.000000,0.168640, -0.640045, 0.102478,0.848663, 0.032654, 0.084717,0.077209, 0.103455, -0.084351
1008, 10070000.000000,0.168640, -0.640045, 0.102478,0.848663, 0.032654, 0.084717,0.077209, 0.103455, -0.084351
1009, 10080000.000000,-0.131073, 0.609253, 0.161346,0.266083, -0.214752, -0.284271,0.065643, 0.111603, -0.097198
1010, 10090000.000000,-0.131073, 0.609253, 0.161346,-0.052551, 0.164734, -0.284271,0.065643, 0.111603, -0.097198
1011, 10100000.000000,-0.079834, 0.747284, 0.118805,-0.052551, 0.164734, -0.284271,0.065643, 0.111603, -0.097198
1012, 10110000.000000,-0.079834, 0.747284, 0.118805,-0.052551, 0.164734, -0.284271,0.065643, 0.111603, -0.097198
1013, 10120000.000000,-0.079834, 0.747284, 0.118805,-0.052551, 0.164734, -0.503021,0.058716, 0.119019, -0.098389
1014, 10130000.000000,-0.117615, 0.801605, 0.012787,-0.302277, 0.004730, -0.502625,0.058716, 0.119019, -0.098389
1015, 10140000.000000,-0.117615, 0.801605, 0.012787,-0.302277, 0.004730, -0.502625,0.058716, 0.119019, -0.098389
1016, 10150000.000000,-0.320679, 0.811890, 0.067963,-0.302277, 0.004730, -0.502625,0.058716, 0.119019, -0.098389
1017, 10160000.000000,-0.320679, 0.811890, 0.067963,-0.302277, 0.004730, -0.290680,0.056305, 0.116791, -0.108704
1018, 10170000.000000,-0.469910, 0.166779, 0.046448,-0.168549, 0.367523, -0.290680,0.056305, 0.116791, -0.108704
1019, 10180000.000000,-0.469910, 0.166779, 0.046448,-0.168549, 0.367523, -0.290680,0.056305, 0.116791, -0.108704
1020, 10190000.000000,-0.162964, 0.158295, -0.003510,-0.168549, 0.367523, -0.290680,0.056305, 0.116791, -0.108704
1021, 10200000.000000,-0.162964, 0.158295, -0.003510,0.015625, -0.024139, -0.327698,0.059814, 0.116302, -0.103424
1022, 10210000.000000,-0.103424, 0.102631, 0.010742,0.015625, -0.024139, -0.327698,0.059814, 0.116302, -0.103424
1023, 10220000.000000,-0.103424, 0.102631, 0.010742,0.015625, -0.024139, -0.327698,0.059814, 0.116302, -0.103424
1024, 10230000.000000,-0.103424, 0.060547, 0.012054,0.015625, -0.024139, -0.327698,0.059814, 0.116302, -0.103424
1025, 10240000.000000,-0.056091, 0.060547, 0.012054,0.015625, -0.046631, -0.279144,0.052704, 0.117432, -0.104706
1026, 10250000.000000,-0.056091, 0.060547, 0.004242,-0.014038, -0.046631, -0.279144,0.052704, 0.117432, -0.104706
1027, 10260000.000000,-0.041077, 0.049164, 0.004547,-0.014038, -0.046631, -0.279144,0.052704, 0.117432, -0.104706
1028, 10270000.000000,-0.041077, 0.049164, 0.004547,-0.014038, -0.046631, -0.279144,0.052704, 0.117432, -0.104706
1029, 10280000.000000,-0.031616, 0.039764, -0.006958,-0.014038, -0.031006, -0.279175,0.052948, 0.116302, -0.099457
1030, 10290000.000000,-0.031616, 0.039764, -0.006958,-0.010895, -0.027252, -0.279175,0.052948, 0.116302, -0.099457
1031, 10300000.000000,-0.022583, 0.027313, -0.014557,-0.010895, -0.027252, -0.279175,0.052948, 0.116302, -0.099457
1032, 10310000.000000,-0.022583, 0.027313, -0.014557,-0.010895, -0.027252, -0.279175,0.052948, 0.116302, -0.099457
1033, 10320000.000000,-0.022583, 0.021088, -0.018219,-0.010895, -0.027252, -0.279175,0.052948, 0.116302, -0.110046
1034, 10330000.000000,-0.020111, 0.021088, -0.018219,-0.016785, -0.017883, -0.269928,0.053589, 0.115875, -0.110046
1035, 10340000.000000,-0.020111, 0.021088, -0.018219,-0.016785, -0.017883, -0.269928,0.053589, 0.115875, -0.110046
1036, 10350000.000000,-0.019440, 0.014404, -0.019409,-0.016785, -0.017883, -0.269928,0.053589, 0.115875, -0.110046
1037, 10360000.000000,-0.019440, 0.014404, -0.019409,-0.016785, -0.017883, -0.269928,0.053589, 0.115875, -0.110046
1038, 10370000.000000,-0.015015, 0.004944, -0.016144,-0.018616, -0.010071, -0.258728,0.057373, 0.115997, -0.111725
1039, 10380000.000000,-0.015015, 0.004944, -0.016144,-0.018616, -0.010071, -0.258728,0.057373, 0.115997, -0.111725
1040, 10390000.000000,-0.008301, 0.001007, -0.010773,-0.018616, -0.010071, -0.258728,0.057373, 0.115997, -0.111725
1041, 10400000.000000,-0.008301, 0.001007, -0.010773,-0.018616, -0.010071, -0.258728,0.057373, 0.115997, -0.111725
1042, 10410000.000000,-0.008301, 0.001007, -0.010406,-0.024231, -0.011658, -0.254974,0.049225, 0.115723, -0.108948
1043, 10420000.000000,-0.001099, 0.004700, -0.010406,-0.024231, -0.011658, -0.254974,0.049225, 0.115723, -0.108948
1044, 10430000.000000,-0.001099, 0.004700, -0.010406,-0.024231, -0.011658, -0.254974,0.049225, 0.115723, -0.108948
1045, 10440000.000000,0.003082, 0.011047, -0.009094,-0.024231, -0.011658, -0.254974,0.049225, 0.115723, -0.108948
1046, 10450000.000000,0.003082, 0.011047, -0.009094,-0.024231, -0.018768, -0.259979,0.057526, 0.115448, -0.103729
1047, 10460000.000000,-0.000275, 0.018127, -0.010681,-0.024139, -0.018768, -0.259979,0.057526, 0.115448, -0.103729
1048, 10470000.000000,-0.000275, 0.018127, -0.010681,-0.024139, -0.018768, -0.259979,0.057526, 0.115448, -0.103729
1049, 10480000.000000,-0.000275, 0.025940, -0.013062,-0.024139, -0.018768, -0.259979,0.057526, 0.115448, -0.103729
1050, 10490000.000000,-0.008392, 0.025391, -0.013062,-0.024139, -0.018768, -0.259247,0.057983, 0.115295, -0.101898
1051, 10500000.000000,-0.008392, 0.025391, -0.013062,-0.026123, -0.017426, -0.259247,0.057983, 0.115295, -0.101898
1052, 10510000.000000,-0.004211, 0.037659, -0.013916,-0.026123, -0.017426, -0.259247,0.057983, 0.115295, -0.101898
1053, 10520000.000000,-0.004211, 0.037659, -0.013916,-0.026123, -0.017426, -0.259247,0.057983, 0.115295, -0.101898
1054, 10530000.000000,-0.010010, 0.042023, -0.013550,-0.026123, -0.017426, -0.259247,0.057983, 0.115295, -0.101898
1055, 10540000.000000,-0.010010, 0.042023, -0.013550,-0.019440, -0.010834, -0.254913,0.054993, 0.116241, -0.110779
1056, 10550000.000000,-0.010010, 0.042023, -0.013550,-0.019440, -0.010834, -0.254913,0.054993, 0.116241, -0.110779
1057, 10560000.000000,-0.003632, 0.044952, -0.013306,-0.019440, -0.010834, -0.254913,0.054993, 0.116241, -0.110779
1058, 10570000.000000,0.001709, 0.044922, -0.010712,-0.019440, -0.017151, -0.261749,0.051910, 0.114532, -0.102905
1059, 10580000.000000,0.001709, 0.044922, -0.010712,-0.017059, -0.017151, -0.261749,0.051910, 0.114532, -0.102905
1060, 10590000.000000,0.000336, 0.038239, -0.010010,-0.017059, -0.017151, -0.261749,0.051910, 0.114532, -0.102905
1061, 10600000.000000,0.000336, 0.038239, -0.010010,-0.017059, -0.017151, -0.261749,0.051910, 0.114532, -0.102905
1062, 10610000.000000,0.000336, 0.038239, -0.010590,-0.017059, -0.017151, -0.258789,0.055695, 0.115051, -0.112579
1063, 10620000.000000,0.000122, 0.032715, -0.010590,-0.019318, -0.015472, -0.258789,0.055695, 0.115051, -0.112579
1064, 10630000.000000,0.000122, 0.032715, -0.010590,-0.019318, -0.015472, -0.258789,0.055695, 0.115051, -0.112579
1065, 10640000.000000,0.003265, 0.028625, -0.013519,-0.019318, -0.015472, -0.258789,0.055695, 0.115051, -0.112579
1066, 10650000.000000,0.003265, 0.028625, -0.013519,-0.019318, -0.015472, -0.254425,0.056244, 0.115845, -0.113953
1067, 10660000.000000,0.004211, 0.027374, -0.016968,-0.017120, -0.018005, -0.254425,0.056244, 0.115845, -0.113953
1068, 10670000.000000,0.004211, 0.027374, -0.016968,-0.017120, -0.018005, -0.254425,0.056244, 0.115845, -0.113953
1069, 10680000.000000,0.002075, 0.026306, -0.019775,-0.017120, -0.018005, -0.254425,0.056244, 0.115845, -0.113953
1070, 10690000.000000,0.002075, 0.026306, -0.019775,-0.017120, -0.018005, -0.254425,0.056244, 0.115845, -0.121765
1071, 10700000.000000,0.002075, 0.026306, -0.019775,-0.019287, -0.016754, -0.252991,0.057068, 0.118225, -0.117279
1072, 10710000.000000,0.005005, 0.029358, -0.024292,-0.019287, -0.016754, -0.252991,0.057068, 0.118225, -0.117279
