Index,Time(us), GyroX , GyroY , GyroZ ,AccX , AccY , AccZ , MagX , MagY , MagZ
1, 0.000000,0.000214, 0.011993, -0.015839,-0.020721, -0.022247, -0.253662,-0.057312, 0.161804, -0.011414
2, 10000.000000,0.000214, 0.011993, -0.014893,-0.020721, -0.022247, -0.253662,-0.057312, 0.169617, -0.013916
3, 20000.000000,-0.001160, 0.011902, -0.014893,-0.021484, -0.023621, -0.257751,-0.047546, 0.166718, -0.013916
4, 30000.000000,-0.001160, 0.011902, -0.014893,-0.021484, -0.023621, -0.257751,-0.047546, 0.166718, -0.013916
5, 40000.000000,0.000183, 0.012787, -0.015137,-0.021484, -0.023621, -0.257751,-0.047546, 0.166718, -0.013916
6, 50000.000000,0.000183, 0.012787, -0.015137,-0.021484, -0.023621, -0.257751,-0.047546, 0.166718, -0.013916
7, 60000.000000,0.000610, 0.012726, -0.015839,-0.021271, -0.023163, -0.258575,-0.052185, 0.165894, -0.015442
8, 70000.000000,0.000610, 0.012726, -0.015839,-0.021271, -0.023163, -0.258575,-0.052185, 0.165894, -0.015442
9, 80000.000000,0.000610, 0.012726, -0.015839,-0.021271, -0.023163, -0.258575,-0.052185, 0.165894, -0.015442
10, 90000.000000,0.000153, 0.012207, -0.015045,-0.021271, -0.023163, -0.258575,-0.052185, 0.165894, -0.015442
11, 100000.000000,0.000153, 0.012207, -0.015045,-0.021271, -0.023163, -0.258575,-0.052185, 0.168304, -0.013763
12, 110000.000000,-0.000580, 0.011200, -0.014343,-0.022583, -0.022247, -0.259125,-0.052856, 0.168304, -0.013763
13, 120000.000000,-0.000580, 0.011200, -0.014343,-0.022583, -0.022247, -0.259125,-0.052856, 0.168304, -0.013763
14, 130000.000000,-0.000580, 0.011200, -0.014343,-0.022583, -0.022247, -0.259125,-0.052856, 0.168304, -0.013763
15, 140000.000000,-0.000580, 0.011993, -0.014984,-0.022583, -0.022247, -0.259125,-0.052856, 0.168304, -0.013763
16, 150000.000000,-0.000580, 0.011993, -0.014984,-0.020477, -0.022552, -0.257263,-0.051727, 0.167053, -0.009827
17, 160000.000000,-0.000977, 0.009827, -0.014709,-0.020477, -0.022552, -0.257263,-0.051727, 0.167053, -0.009827
18, 170000.000000,-0.000977, 0.009827, -0.014709,-0.020477, -0.022552, -0.257263,-0.051727, 0.167053, -0.009827
19, 180000.000000,-0.001099, 0.010071, -0.015472,-0.020477, -0.022552, -0.257263,-0.051727, 0.167053, -0.017639
20, 190000.000000,-0.001099, 0.010071, -0.015472,-0.018677, -0.023651, -0.255463,-0.049103, 0.166321, -0.018066
21, 200000.000000,-0.000092, 0.009888, -0.016693,-0.018677, -0.023651, -0.255463,-0.049103, 0.166321, -0.018066
22, 210000.000000,-0.000092, 0.009888, -0.016693,-0.018677, -0.023651, -0.255463,-0.049103, 0.166321, -0.018066
23, 220000.000000,-0.000275, 0.010498, -0.016205,-0.018677, -0.023651, -0.255463,-0.049103, 0.166321, -0.018066
24, 230000.000000,-0.000275, 0.010498, -0.016205,-0.019196, -0.022339, -0.259644,-0.049072, 0.167389, -0.018738
25, 240000.000000,-0.000275, 0.010498, -0.016205,-0.019196, -0.022339, -0.259644,-0.049072, 0.167389, -0.018738
26, 250000.000000,0.000153, 0.010132, -0.014679,-0.019196, -0.022339, -0.259644,-0.049072, 0.167389, -0.018738
27, 260000.000000,0.000153, 0.010132, -0.014679,-0.019196, -0.022339, -0.259644,-0.049072, 0.167389, -0.018738
28, 270000.000000,-0.000671, 0.010376, -0.015167,-0.019196, -0.022339, -0.251831,-0.052429, 0.168365, -0.014435
29, 280000.000000,-0.000671, 0.010376, -0.015167,-0.018433, -0.022125, -0.254456,-0.052429, 0.168365, -0.014435
30, 290000.000000,-0.000671, 0.010376, -0.015167,-0.018433, -0.022125, -0.254456,-0.052429, 0.168365, -0.014435
31, 300000.000000,-0.000183, 0.008698, -0.014679,-0.018433, -0.022125, -0.254456,-0.052429, 0.168365, -0.014435
32, 310000.000000,-0.000183, 0.008698, -0.014679,-0.018433, -0.022125, -0.254456,-0.052429, 0.168365, -0.014435
33, 320000.000000,-0.001373, 0.010132, -0.015381,-0.020782, -0.022034, -0.256744,-0.050049, 0.167328, -0.018799
34, 330000.000000,-0.001373, 0.010132, -0.015381,-0.020782, -0.022034, -0.256744,-0.050049, 0.167328, -0.018799
35, 340000.000000,-0.001373, 0.010132, -0.015381,-0.020782, -0.022034, -0.256744,-0.050049, 0.167328, -0.018799
36, 350000.000000,-0.001648, 0.010559, -0.015198,-0.020782, -0.022034, -0.256744,-0.050049, 0.167328, -0.018799
37, 360000.000000,-0.001648, 0.010559, -0.015198,-0.020782, -0.022034, -0.256744,-0.050049, 0.167267, -0.015350
38, 370000.000000,-0.001007, 0.010834, -0.014801,-0.020691, -0.023010, -0.263031,-0.050354, 0.167267, -0.015350
39, 380000.000000,-0.001007, 0.010834, -0.014801,-0.020691, -0.023010, -0.263031,-0.050354, 0.167267, -0.015350
40, 390000.000000,-0.001007, 0.010834, -0.016113,-0.020691, -0.023010, -0.263031,-0.050354, 0.167267, -0.015350
41, 400000.000000,-0.000244, 0.008942, -0.016113,-0.020691, -0.023010, -0.263031,-0.050354, 0.167267, -0.015350
42, 410000.000000,-0.000244, 0.008942, -0.016113,-0.022400, -0.022858, -0.254089,-0.052917, 0.167603, -0.014954
43, 420000.000000,-0.001648, 0.010590, -0.014587,-0.022400, -0.022858, -0.254089,-0.052917, 0.167603, -0.014954
44, 430000.000000,-0.001648, 0.010590, -0.014587,-0.022400, -0.022858, -0.254089,-0.052917, 0.167603, -0.014954
45, 440000.000000,-0.001648, 0.010590, -0.013733,-0.022400, -0.022858, -0.254089,-0.052917, 0.167603, -0.014954
46, 450000.000000,-0.000580, 0.010376, -0.013733,-0.022400, -0.022858, -0.254089,-0.052917, 0.167603, -0.016449
47, 460000.000000,-0.000580, 0.010376, -0.013733,-0.022583, -0.021942, -0.255554,-0.048248, 0.167725, -0.016449
48, 470000.000000,-0.001282, 0.011169, -0.014191,-0.022583, -0.021942, -0.255554,-0.048248, 0.167725, -0.016449
49, 480000.000000,-0.001282, 0.011169, -0.014191,-0.022583, -0.021942, -0.255554,-0.048248, 0.167725, -0.016449
50, 490000.000000,-0.001282, 0.011383, -0.015869,-0.022583, -0.021942, -0.255554,-0.048248, 0.167725, -0.016449
51, 500000.000000,-0.000641, 0.011383, -0.015869,-0.023254, -0.021667, -0.256683,-0.049225, 0.168182, -0.015930
52, 510000.000000,-0.000641, 0.011383, -0.015869,-0.023254, -0.021667, -0.256683,-0.049225, 0.168182, -0.015930
53, 520000.000000,-0.001129, 0.010864, -0.014801,-0.023254, -0.021667, -0.256683,-0.049225, 0.168182, -0.015930
54, 530000.000000,-0.001129, 0.010864, -0.014801,-0.023254, -0.021667, -0.256683,-0.049225, 0.168182, -0.015930
55, 540000.000000,-0.000793, 0.010590, -0.014526,-0.023254, -0.021667, -0.256683,-0.049225, 0.166779, -0.019806
56, 550000.000000,-0.000793, 0.010590, -0.014526,-0.023407, -0.022369, -0.257324,-0.049896, 0.166779, -0.019806
57, 560000.000000,-0.000793, 0.010590, -0.014526,-0.023407, -0.022369, -0.257324,-0.049896, 0.166779, -0.019806
58, 570000.000000,-0.001465, 0.010773, -0.015991,-0.023407, -0.022369, -0.257324,-0.049896, 0.166779, -0.019806
59, 580000.000000,-0.001465, 0.010773, -0.015991,-0.023407, -0.022369, -0.257324,-0.049896, 0.166779, -0.019806
60, 590000.000000,-0.000763, 0.009186, -0.015625,-0.022278, -0.022278, -0.254486,-0.054291, 0.166718, -0.011749
61, 600000.000000,-0.000763, 0.009186, -0.015625,-0.022278, -0.022278, -0.254486,-0.054291, 0.166718, -0.011749
62, 610000.000000,-0.000763, 0.009186, -0.023438,-0.022278, -0.022278, -0.254486,-0.054291, 0.166718, -0.011749
63, 620000.000000,0.000488, 0.008698, -0.016144,-0.022278, -0.022278, -0.254486,-0.054291, 0.166718, -0.011749
64, 630000.000000,0.000488, 0.008698, -0.016144,-0.022278, -0.022278, -0.254486,-0.054291, 0.168365, -0.019348
65, 640000.000000,0.000549, 0.009369, -0.014862,-0.021759, -0.024292, -0.253998,-0.049744, 0.168365, -0.019348
66, 650000.000000,0.000549, 0.009369, -0.014862,-0.021759, -0.024292, -0.253998,-0.049744, 0.168365, -0.019348
67, 660000.000000,0.000549, 0.009369, -0.015961,-0.021759, -0.024292, -0.253998,-0.049744, 0.168365, -0.019348
68, 670000.000000,-0.000183, 0.009491, -0.015961,-0.021759, -0.024292, -0.246185,-0.049744, 0.167145, -0.015503
69, 680000.000000,-0.000183, 0.010956, -0.015503,-0.020844, -0.023438, -0.249634,-0.049927, 0.167145, -0.015503
70, 690000.000000,-0.000153, 0.010956, -0.015503,-0.020844, -0.023438, -0.249634,-0.049927, 0.167145, -0.015503
71, 700000.000000,-0.000153, 0.010956, -0.015503,-0.020844, -0.023438, -0.249634,-0.049927, 0.167145, -0.015503
72, 710000.000000,0.000305, 0.010864, -0.014435,-0.020844, -0.023438, -0.249634,-0.049927, 0.167145, -0.015503
73, 720000.000000,0.000305, 0.010864, -0.014435,-0.021332, -0.022308, -0.257843,-0.051361, 0.167877, -0.016144
74, 730000.000000,-0.000275, 0.009918, -0.015228,-0.021332, -0.022308, -0.257843,-0.051361, 0.167877, -0.016144
75, 740000.000000,-0.000275, 0.009918, -0.015228,-0.021332, -0.022308, -0.257843,-0.051361, 0.167877, -0.016144
76, 750000.000000,-0.000275, 0.009918, -0.015228,-0.021332, -0.022308, -0.257843,-0.051361, 0.167877, -0.016144
77, 760000.000000,-0.000153, 0.010864, -0.014404,-0.021332, -0.022308, -0.257843,-0.051361, 0.168427, -0.017029
78, 770000.000000,-0.000153, 0.010864, -0.014404,-0.021912, -0.022186, -0.257172,-0.050568, 0.168427, -0.017029
79, 780000.000000,0.000641, 0.010406, -0.014801,-0.021912, -0.022186, -0.257172,-0.050568, 0.168427, -0.017029
80, 790000.000000,0.000641, 0.010406, -0.014801,-0.021912, -0.022186, -0.257172,-0.050568, 0.168427, -0.017029
81, 800000.000000,0.000641, 0.010406, -0.014801,-0.021912, -0.022186, -0.257172,-0.050568, 0.168427, -0.017029
82, 810000.000000,0.000366, 0.009949, -0.014709,-0.023010, -0.022156, -0.256226,-0.049194, 0.167511, -0.016663
83, 820000.000000,0.000366, 0.009949, -0.014709,-0.023010, -0.022156, -0.256226,-0.049194, 0.167511, -0.016663
84, 830000.000000,-0.000793, 0.010468, -0.014313,-0.023010, -0.022156, -0.256226,-0.049194, 0.167511, -0.016663
85, 840000.000000,-0.000793, 0.010468, -0.014313,-0.023010, -0.022156, -0.256226,-0.049194, 0.167511, -0.016663
86, 850000.000000,-0.000793, 0.010468, -0.014313,-0.023010, -0.022156, -0.256226,-0.049194, 0.167511, -0.018982
87, 860000.000000,-0.000549, 0.011169, -0.014526,-0.022247, -0.022217, -0.259277,-0.049408, 0.166321, -0.018982
88, 870000.000000,-0.000549, 0.011169, -0.014526,-0.022247, -0.022217, -0.259277,-0.049408, 0.166321, -0.018982
89, 880000.000000,-0.000397, 0.010101, -0.014557,-0.022247, -0.022217, -0.259277,-0.049408, 0.166321, -0.018982
90, 890000.000000,-0.000397, 0.010101, -0.014557,-0.022247, -0.022217, -0.259277,-0.049408, 0.166321, -0.018982
91, 900000.000000,-0.000122, 0.011322, -0.014984,-0.022247, -0.021637, -0.252014,-0.048828, 0.167725, -0.010223
92, 910000.000000,-0.000122, 0.011322, -0.014984,-0.022247, -0.021637, -0.252014,-0.048828, 0.167725, -0.010223
93, 920000.000000,-0.000305, 0.010284, -0.014526,-0.022247, -0.021637, -0.252014,-0.048828, 0.167725, -0.010223
94, 930000.000000,-0.000305, 0.010284, -0.014526,-0.022247, -0.021637, -0.252014,-0.048828, 0.167725, -0.012024
95, 940000.000000,-0.000305, 0.010956, -0.015137,-0.021301, -0.023651, -0.252563,-0.048187, 0.165070, -0.012024
96, 950000.000000,0.000427, 0.010956, -0.015137,-0.021301, -0.023651, -0.252563,-0.048187, 0.165070, -0.012024
97, 960000.000000,0.000427, 0.010956, -0.015137,-0.021301, -0.023651, -0.252563,-0.048187, 0.165070, -0.012024
98, 970000.000000,-0.000488, 0.012024, -0.014832,-0.021301, -0.023651, -0.252563,-0.048187, 0.165070, -0.012024
99, 980000.000000,-0.000488, 0.012024, -0.014832,-0.019440, -0.023712, -0.260315,-0.048157, 0.167755, -0.019318
100, 990000.000000,-0.000488, 0.011810, -0.015717,-0.019440, -0.023712, -0.260315,-0.048157, 0.167755, -0.019318
101, 1000000.000000,-0.000702, 0.011810, -0.015717,-0.019440, -0.023712, -0.260315,-0.048157, 0.167755, -0.019318
102, 1010000.000000,-0.000702, 0.011810, -0.015717,-0.019440, -0.023712, -0.260315,-0.048157, 0.167755, -0.019318
103, 1020000.000000,-0.001343, 0.011566, -0.014771,-0.019440, -0.023712, -0.260315,-0.048157, 0.167755, -0.011505
104, 1030000.000000,-0.001343, 0.011566, -0.014771,-0.021118, -0.022858, -0.257812,-0.051666, 0.165863, -0.013245
105, 1040000.000000,-0.000336, 0.011078, -0.014771,-0.021118, -0.022858, -0.257812,-0.051666, 0.165863, -0.013245
106, 1050000.000000,-0.000336, 0.011078, -0.014771,-0.021118, -0.022858, -0.257812,-0.051666, 0.165863, -0.013245
107, 1060000.000000,-0.000336, 0.011078, -0.014771,-0.021118, -0.022858, -0.257812,-0.051666, 0.165863, -0.013245
108, 1070000.000000,0.000031, 0.010620, -0.014862,-0.021484, -0.023315, -0.257935,-0.053406, 0.166779, -0.010132
109, 1080000.000000,0.000031, 0.010620, -0.014862,-0.021484, -0.023315, -0.257935,-0.053406, 0.166779, -0.010132
110, 1090000.000000,-0.000519, 0.010254, -0.015045,-0.021484, -0.023315, -0.257935,-0.053406, 0.166779, -0.010132
111, 1100000.000000,-0.000519, 0.010254, -0.015045,-0.021484, -0.023315, -0.257935,-0.053406, 0.166779, -0.010132
112, 1110000.000000,-0.000519, 0.010254, -0.015717,-0.021484, -0.023315, -0.257935,-0.053406, 0.166351, -0.020569
113, 1120000.000000,0.000122, 0.011749, -0.015717,-0.022522, -0.023651, -0.260132,-0.046448, 0.166351, -0.020569
114, 1130000.000000,0.000122, 0.011749, -0.015717,-0.022522, -0.023651, -0.260132,-0.046448, 0.166351, -0.020569
115, 1140000.000000,-0.000885, 0.011200, -0.015167,-0.022522, -0.023651, -0.260132,-0.046448, 0.166351, -0.020569
116, 1150000.000000,-0.000885, 0.011200, -0.015167,-0.022522, -0.023651, -0.260132,-0.046448, 0.166351, -0.020569
117, 1160000.000000,-0.000885, 0.011200, -0.014954,-0.022827, -0.022339, -0.257629,-0.049042, 0.166290, -0.018494
118, 1170000.000000,0.000153, 0.011169, -0.014954,-0.022827, -0.022339, -0.257629,-0.049042, 0.166290, -0.018494
119, 1180000.000000,0.000153, 0.011169, -0.014954,-0.022827, -0.022339, -0.257629,-0.049042, 0.166290, -0.018494
120, 1190000.000000,0.001251, 0.012177, -0.014404,-0.022827, -0.022339, -0.257629,-0.049042, 0.166290, -0.018494
121, 1200000.000000,0.001251, 0.012177, -0.014404,-0.022827, -0.022339, -0.257629,-0.049042, 0.166290, -0.017212
122, 1210000.000000,-0.006561, 0.012421, -0.015472,-0.020691, -0.022064, -0.254822,-0.052399, 0.168732, -0.017212
123, 1220000.000000,-0.000153, 0.012421, -0.015472,-0.020691, -0.022064, -0.254822,-0.052399, 0.168732, -0.017212
124, 1230000.000000,-0.000153, 0.012421, -0.015472,-0.020691, -0.022064, -0.254822,-0.052399, 0.168732, -0.017212
125, 1240000.000000,-0.000854, 0.011261, -0.015228,-0.020691, -0.022064, -0.254822,-0.052399, 0.168732, -0.017212
126, 1250000.000000,-0.000854, 0.011261, -0.015228,-0.020477, -0.023865, -0.259033,-0.049622, 0.167816, -0.016418
127, 1260000.000000,0.000275, 0.010101, -0.014587,-0.020477, -0.023865, -0.259033,-0.049622, 0.167816, -0.016418
128, 1270000.000000,0.000275, 0.010101, -0.014587,-0.020477, -0.023865, -0.259033,-0.049622, 0.167816, -0.016418
129, 1280000.000000,0.000275, 0.010101, -0.014587,-0.020477, -0.023865, -0.259033,-0.049622, 0.167816, -0.016418
130, 1290000.000000,-0.000366, 0.011139, -0.015350,-0.020477, -0.023865, -0.259033,-0.049622, 0.167725, -0.018250
131, 1300000.000000,-0.000366, 0.011139, -0.015350,-0.019958, -0.021851, -0.257935,-0.049652, 0.167725, -0.018250
132, 1310000.000000,-0.000183, 0.012146, -0.014832,-0.019958, -0.021851, -0.257935,-0.049652, 0.167725, -0.018250
133, 1320000.000000,-0.000183, 0.012146, -0.014832,-0.019958, -0.021851, -0.257935,-0.049652, 0.167725, -0.018250
134, 1330000.000000,-0.001190, 0.011200, -0.014893,-0.019958, -0.021851, -0.257935,-0.049652, 0.167725, -0.014862
135, 1340000.000000,-0.001190, 0.011200, -0.014893,-0.020325, -0.024048, -0.251740,-0.049377, 0.168549, -0.014862
136, 1350000.000000,-0.001190, 0.011200, -0.014893,-0.020325, -0.024048, -0.251740,-0.049377, 0.168549, -0.014862
137, 1360000.000000,-0.001099, 0.011658, -0.014526,-0.020325, -0.024048, -0.251740,-0.049377, 0.168549, -0.014862
138, 1370000.000000,-0.001099, 0.011658, -0.014526,-0.020325, -0.024048, -0.251740,-0.049377, 0.168549, -0.014862
139, 1380000.000000,-0.001221, 0.010681, -0.014709,-0.020660, -0.022308, -0.254364,-0.052399, 0.167328, -0.014648
140, 1390000.000000,-0.001221, 0.010681, -0.014709,-0.020660, -0.022308, -0.254364,-0.052399, 0.167328, -0.014648
141, 1400000.000000,-0.001221, 0.010681, -0.014709,-0.020660, -0.022308, -0.254364,-0.052399, 0.167328, -0.014648
142, 1410000.000000,-0.002258, 0.010498, -0.015259,-0.020660, -0.022308, -0.254364,-0.052399, 0.167328, -0.014648
143, 1420000.000000,-0.002258, 0.010498, -0.015259,-0.020660, -0.022308, -0.254364,-0.052399, 0.167328, -0.018524
144, 1430000.000000,-0.000580, 0.011017, -0.015625,-0.022125, -0.023132, -0.256653,-0.051514, 0.167267, -0.018524
145, 1440000.000000,-0.000580, 0.011017, -0.015625,-0.022125, -0.023132, -0.256653,-0.051514, 0.167267, -0.018524
146, 1450000.000000,-0.000580, 0.011017, -0.014526,-0.022125, -0.023132, -0.256653,-0.051514, 0.167267, -0.018524
147, 1460000.000000,0.000244, 0.010773, -0.014526,-0.022125, -0.023132, -0.256653,-0.051514, 0.167267, -0.018524
148, 1470000.000000,0.000244, 0.010773, -0.014526,-0.021027, -0.022797, -0.258881,-0.049225, 0.169800, -0.017395
149, 1480000.000000,-0.002197, 0.011108, -0.015106,-0.021027, -0.022797, -0.258881,-0.049225, 0.169800, -0.017395
150, 1490000.000000,-0.002197, 0.011108, -0.015106,-0.021027, -0.022797, -0.258881,-0.049225, 0.169800, -0.017395
151, 1500000.000000,-0.000946, 0.011200, -0.014679,-0.021027, -0.022797, -0.258881,-0.049225, 0.169800, -0.017395
152, 1510000.000000,-0.000946, 0.011200, -0.014679,-0.021027, -0.022797, -0.258881,-0.049225, 0.169800, -0.015228
153, 1520000.000000,-0.000946, 0.011200, -0.014679,-0.021454, -0.023499, -0.257843,-0.050507, 0.167267, -0.015228
154, 1530000.000000,-0.001282, 0.010620, -0.014832,-0.021454, -0.023499, -0.257843,-0.050507, 0.167267, -0.015228
155, 1540000.000000,-0.002319, 0.011993, -0.014923,-0.021454, -0.023499, -0.257843,-0.050507, 0.164978, -0.018646
156, 1550000.000000,-0.002319, 0.011993, -0.014923,-0.021301, -0.022003, -0.261261,-0.049561, 0.164978, -0.018646
157, 1560000.000000,-0.001038, 0.010529, -0.013641,-0.021301, -0.022003, -0.261261,-0.049561, 0.164978, -0.018646
158, 1570000.000000,-0.001038, 0.010529, -0.014343,-0.021301, -0.022003, -0.261261,-0.049561, 0.164978, -0.018646
159, 1580000.000000,-0.000214, 0.009888, -0.014343,-0.020721, -0.021698, -0.253632,-0.052887, 0.167633, -0.015137
160, 1590000.000000,-0.000214, 0.009888, -0.014343,-0.020721, -0.021698, -0.253632,-0.052887, 0.167633, -0.015137
161, 1600000.000000,-0.000427, 0.011475, -0.013947,-0.020721, -0.021698, -0.253632,-0.052887, 0.167633, -0.015137
162, 1610000.000000,-0.000427, 0.011475, -0.013947,-0.020721, -0.021698, -0.253632,-0.052887, 0.167633, -0.015137
163, 1620000.000000,-0.001373, 0.011810, -0.013702,-0.020630, -0.022888, -0.251251,-0.049133, 0.166504, -0.017975
164, 1630000.000000,-0.001373, 0.011810, -0.013702,-0.020630, -0.022888, -0.251251,-0.049133, 0.166504, -0.017975
165, 1640000.000000,-0.001373, 0.011810, -0.014587,-0.020630, -0.022888, -0.251251,-0.049133, 0.166504, -0.017975
166, 1650000.000000,-0.000488, 0.010651, -0.014587,-0.020630, -0.022888, -0.251251,-0.049133, 0.166504, -0.017975
167, 1660000.000000,-0.000488, 0.010651, -0.014587,-0.020630, -0.022888, -0.253174,-0.048309, 0.167236, -0.013885
168, 1670000.000000,-0.001312, 0.011230, -0.016205,-0.021881, -0.022949, -0.253174,-0.048309, 0.167236, -0.013885
169, 1680000.000000,-0.001312, 0.011230, -0.016205,-0.021881, -0.022949, -0.253174,-0.048309, 0.167236, -0.013885
170, 1690000.000000,-0.000732, 0.011871, -0.015411,-0.021881, -0.022949, -0.253174,-0.048309, 0.167236, -0.013885
171, 1700000.000000,-0.000732, 0.011871, -0.015411,-0.021881, -0.022949, -0.253174,-0.048309, 0.167236, -0.013885
172, 1710000.000000,-0.000732, 0.011871, -0.015411,-0.019989, -0.022888, -0.253204,-0.048645, 0.167999, -0.021210
173, 1720000.000000,-0.001190, 0.011841, -0.015747,-0.019989, -0.022888, -0.253204,-0.048645, 0.167999, -0.021210
174, 1730000.000000,-0.001190, 0.011841, -0.015747,-0.019989, -0.022888, -0.253204,-0.048645, 0.167999, -0.021210
175, 1740000.000000,-0.000275, 0.010620, -0.015625,-0.019989, -0.022888, -0.253204,-0.048645, 0.167999, -0.015594
176, 1750000.000000,-0.000275, 0.010620, -0.015625,-0.021271, -0.021210, -0.252747,-0.048340, 0.166626, -0.015594
177, 1760000.000000,-0.001007, 0.010681, -0.015503,-0.021271, -0.021210, -0.252747,-0.048340, 0.166626, -0.015594
178, 1770000.000000,-0.001007, 0.010681, -0.015503,-0.021271, -0.021210, -0.252747,-0.048340, 0.166626, -0.015594
179, 1780000.000000,-0.000732, 0.011444, -0.014191,-0.021271, -0.021210, -0.252747,-0.048340, 0.166626, -0.015594
180, 1790000.000000,-0.000732, 0.011444, -0.014191,-0.023346, -0.024261, -0.254639,-0.054596, 0.167572, -0.014832
181, 1800000.000000,0.000732, 0.010040, -0.015228,-0.023346, -0.024261, -0.254639,-0.054596, 0.167572, -0.014832
182, 1810000.000000,0.000732, 0.010040, -0.015228,-0.023346, -0.024261, -0.254639,-0.054596, 0.167572, -0.014832
183, 1820000.000000,0.000732, 0.010040, -0.015228,-0.023346, -0.024261, -0.254639,-0.054596, 0.167572, -0.014832
184, 1830000.000000,-0.000183, 0.011963, -0.015442,-0.023346, -0.023193, -0.255951,-0.051514, 0.168060, -0.018524
185, 1840000.000000,-0.000183, 0.011963, -0.015442,-0.021515, -0.023193, -0.255951,-0.051514, 0.168060, -0.018524
186, 1850000.000000,-0.000366, 0.011597, -0.014801,-0.021515, -0.023193, -0.255951,-0.051514, 0.168060, -0.018524
187, 1860000.000000,-0.000366, 0.011597, -0.014801,-0.021515, -0.023193, -0.255951,-0.051514, 0.168060, -0.018524
188, 1870000.000000,-0.000366, 0.011597, -0.014801,-0.021515, -0.023193, -0.255951,-0.051514, 0.168060, -0.018524
189, 1880000.000000,0.000000, 0.010315, -0.014160,-0.021271, -0.022675, -0.258545,-0.051025, 0.167358, -0.015320
190, 1890000.000000,0.000000, 0.010315, -0.014160,-0.021271, -0.022675, -0.258545,-0.051025, 0.167358, -0.015320
191, 1900000.000000,-0.000702, 0.010406, -0.014069,-0.021271, -0.022675, -0.258545,-0.051025, 0.167358, -0.015320
192, 1910000.000000,-0.000702, 0.010406, -0.014069,-0.021271, -0.022675, -0.258545,-0.051025, 0.167358, -0.015320
193, 1920000.000000,-0.000702, 0.010406, -0.014069,-0.021271, -0.022675, -0.251068,-0.049500, 0.167023, -0.015961
194, 1930000.000000,-0.000763, 0.011261, -0.014496,-0.020599, -0.022430, -0.251068,-0.049500, 0.167023, -0.015961
195, 1940000.000000,-0.000763, 0.011261, -0.014496,-0.020599, -0.022430, -0.251068,-0.049500, 0.167023, -0.015961
196, 1950000.000000,0.000702, 0.010803, -0.014526,-0.020599, -0.022430, -0.251068,-0.049500, 0.167023, -0.015961
197, 1960000.000000,0.000702, 0.010803, -0.014526,-0.020599, -0.022430, -0.251068,-0.049500, 0.167023, -0.015961
198, 1970000.000000,0.000702, 0.010803, -0.014923,-0.022064, -0.021088, -0.257538,-0.050262, 0.167023, -0.016296
199, 1980000.000000,-0.000366, 0.010803, -0.014923,-0.022064, -0.021088, -0.257538,-0.050262, 0.167023, -0.016296
200, 1990000.000000,-0.000366, 0.010803, -0.015289,-0.022064, -0.021088, -0.257538,-0.050262, 0.167023, -0.016296
201, 2000000.000000,-0.001282, 0.010895, -0.015289,-0.022064, -0.021088, -0.257538,-0.050262, 0.167023, -0.016296
202, 2010000.000000,-0.001282, 0.010895, -0.015289,-0.023254, -0.022797, -0.256012,-0.051117, 0.168091, -0.018311
203, 2020000.000000,-0.001007, 0.009857, -0.016052,-0.023254, -0.022797, -0.256012,-0.051117, 0.168091, -0.018311
204, 2030000.000000,-0.001007, 0.009857, -0.016052,-0.023254, -0.022797, -0.256012,-0.051117, 0.168091, -0.018311
205, 2040000.000000,-0.001007, 0.010590, -0.015839,-0.023254, -0.022797, -0.256012,-0.051117, 0.168091, -0.018311
206, 2050000.000000,-0.000824, 0.010590, -0.015839,-0.023254, -0.022797, -0.249115,-0.051727, 0.169006, -0.013153
207, 2060000.000000,-0.000824, 0.010590, -0.015839,-0.020813, -0.022369, -0.249115,-0.051727, 0.169006, -0.013153
208, 2070000.000000,-0.000488, 0.010925, -0.014923,-0.020813, -0.022369, -0.249115,-0.051727, 0.169006, -0.013153
209, 2080000.000000,-0.000488, 0.010925, -0.014923,-0.020813, -0.022369, -0.249115,-0.051727, 0.169006, -0.013153
210, 2090000.000000,-0.000885, 0.010773, -0.015381,-0.020813, -0.022369, -0.249115,-0.051727, 0.169006, -0.013153
211, 2100000.000000,-0.000885, 0.010773, -0.015381,-0.020508, -0.022156, -0.259705,-0.049255, 0.166626, -0.017761
212, 2110000.000000,-0.000885, 0.010773, -0.015381,-0.020508, -0.022156, -0.259705,-0.049255, 0.166626, -0.017761
213, 2120000.000000,-0.000916, 0.010376, -0.014435,-0.020508, -0.022156, -0.259705,-0.049255, 0.166626, -0.017761
214, 2130000.000000,-0.000916, 0.010376, -0.014435,-0.020508, -0.022156, -0.259705,-0.049255, 0.166626, -0.017761
215, 2140000.000000,-0.000305, 0.011810, -0.013916,-0.020508, -0.022156, -0.258362,-0.053467, 0.167450, -0.018677
216, 2150000.000000,-0.000305, 0.011810, -0.013916,-0.022888, -0.022186, -0.258362,-0.053467, 0.167450, -0.018677
217, 2160000.000000,-0.000305, 0.011810, -0.013916,-0.022888, -0.022186, -0.258362,-0.053467, 0.167450, -0.018677
218, 2170000.000000,-0.000305, 0.011200, -0.013977,-0.022888, -0.022186, -0.258362,-0.053467, 0.167450, -0.018677
219, 2180000.000000,-0.000305, 0.011200, -0.013977,-0.022888, -0.022186, -0.258362,-0.053467, 0.167450, -0.018677
220, 2190000.000000,0.001007, 0.011108, -0.014648,-0.020050, -0.021881, -0.254120,-0.049652, 0.166656, -0.011841
221, 2200000.000000,0.001007, 0.011108, -0.014648,-0.020050, -0.021881, -0.254120,-0.049652, 0.166656, -0.011841
222, 2210000.000000,0.000641, 0.011078, -0.014832,-0.020050, -0.021881, -0.254120,-0.049652, 0.166656, -0.011841
223, 2220000.000000,0.000641, 0.011078, -0.014832,-0.020050, -0.021881, -0.254120,-0.049652, 0.166656, -0.011841
224, 2230000.000000,0.000641, 0.011078, -0.014832,-0.021790, -0.023499, -0.259674,-0.048920, 0.166779, -0.020142
225, 2240000.000000,-0.000977, 0.010742, -0.015381,-0.021790, -0.023499, -0.259674,-0.048920, 0.166779, -0.020142
226, 2250000.000000,-0.000977, 0.010742, -0.015381,-0.021790, -0.023499, -0.259674,-0.048920, 0.166779, -0.020142
227, 2260000.000000,-0.000427, 0.011444, -0.015564,-0.021790, -0.023499, -0.259674,-0.048920, 0.166779, -0.020142
228, 2270000.000000,-0.000427, 0.011444, -0.015564,-0.021790, -0.023499, -0.259674,-0.048920, 0.165894, -0.019440
229, 2280000.000000,-0.000427, 0.011444, -0.016327,-0.022705, -0.022278, -0.254944,-0.049011, 0.165894, -0.019440
230, 2290000.000000,-0.000641, 0.010590, -0.016327,-0.022705, -0.022278, -0.254944,-0.049011, 0.165894, -0.019440
231, 2300000.000000,-0.000641, 0.010590, -0.016327,-0.022705, -0.022278, -0.254944,-0.049011, 0.165894, -0.019440
232, 2310000.000000,0.000641, 0.010254, -0.014526,-0.022705, -0.022278, -0.254944,-0.049011, 0.165894, -0.019440
233, 2320000.000000,0.000641, 0.010254, -0.014526,-0.022614, -0.022522, -0.256134,-0.050446, 0.164795, -0.015503
234, 2330000.000000,0.000641, 0.010254, -0.014160,-0.022614, -0.022522, -0.256134,-0.050446, 0.164795, -0.015503
235, 2340000.000000,-0.000610, 0.010986, -0.014160,-0.022614, -0.022522, -0.256134,-0.050446, 0.164795, -0.015503
236, 2350000.000000,-0.000610, 0.010986, -0.014160,-0.022614, -0.022522, -0.256134,-0.050446, 0.164795, -0.015503
237, 2360000.000000,0.000305, 0.012726, -0.015076,-0.022614, -0.022522, -0.256134,-0.050446, 0.168854, -0.010651
238, 2370000.000000,0.000305, 0.012726, -0.015076,-0.021759, -0.022919, -0.250671,-0.049866, 0.168854, -0.010651
239, 2380000.000000,-0.000336, 0.011963, -0.015137,-0.021759, -0.022919, -0.250671,-0.049866, 0.168854, -0.010651
240, 2390000.000000,-0.000336, 0.011963, -0.015137,-0.021759, -0.022919, -0.250671,-0.049866, 0.168854, -0.010651
241, 2400000.000000,0.000671, 0.011353, -0.014465,-0.021942, -0.023590, -0.256744,-0.050903, 0.168518, -0.015411
242, 2410000.000000,0.000671, 0.011353, -0.014465,-0.021942, -0.023590, -0.256744,-0.050903, 0.168518, -0.015411
243, 2420000.000000,0.001770, 0.011627, -0.015259,-0.021942, -0.023590, -0.256744,-0.050903, 0.168518, -0.015411
244, 2430000.000000,0.001770, 0.011627, -0.015259,-0.021942, -0.023590, -0.256744,-0.050903, 0.168518, -0.015411
245, 2440000.000000,-0.000031, 0.010925, -0.014496,-0.022125, -0.021118, -0.257263,-0.052124, 0.168945, -0.023132
246, 2450000.000000,-0.000031, 0.010925, -0.014496,-0.022125, -0.021118, -0.257263,-0.052124, 0.168945, -0.023132
247, 2460000.000000,-0.000031, 0.010925, -0.014496,-0.022125, -0.021118, -0.257263,-0.052124, 0.168945, -0.023132
248, 2470000.000000,-0.000824, 0.011230, -0.014374,-0.022125, -0.021118, -0.257263,-0.052124, 0.168945, -0.023132
249, 2480000.000000,-0.000824, 0.011230, -0.014374,-0.022125, -0.021118, -0.257263,-0.052124, 0.168945, -0.023132
250, 2490000.000000,-0.000488, 0.011078, -0.014923,-0.023743, -0.022247, -0.254242,-0.051575, 0.168335, -0.008453
251, 2500000.000000,-0.000488, 0.011078, -0.014923,-0.023743, -0.022247, -0.254242,-0.051575, 0.168335, -0.008453
252, 2510000.000000,-0.000488, 0.011078, -0.014923,-0.023743, -0.022247, -0.254242,-0.051575, 0.168335, -0.008453
253, 2520000.000000,-0.000641, 0.010986, -0.014923,-0.023743, -0.022247, -0.254242,-0.051575, 0.168335, -0.008453
254, 2530000.000000,-0.000641, 0.010986, -0.014923,-0.020752, -0.022278, -0.255646,-0.048462, 0.166046, -0.017181
255, 2540000.000000,-0.001038, 0.011780, -0.015198,-0.020752, -0.022278, -0.255646,-0.048462, 0.166046, -0.017181
256, 2550000.000000,-0.001038, 0.011780, -0.015198,-0.020752, -0.022278, -0.255646,-0.048462, 0.166046, -0.017181
257, 2560000.000000,-0.001038, 0.011780, -0.015198,-0.020752, -0.022278, -0.255646,-0.048462, 0.166046, -0.017181
258, 2570000.000000,-0.001282, 0.011871, -0.013885,-0.020752, -0.022278, -0.255646,-0.048462, 0.166046, -0.017181
259, 2580000.000000,-0.001282, 0.011871, -0.013885,-0.019775, -0.021088, -0.253418,-0.051971, 0.167175, -0.014832
260, 2590000.000000,-0.000763, 0.011566, -0.014587,-0.019775, -0.021088, -0.253418,-0.051971, 0.167175, -0.014832
261, 2600000.000000,-0.000763, 0.011566, -0.014587,-0.019775, -0.021088, -0.253418,-0.051971, 0.167175, -0.014832
262, 2610000.000000,-0.000763, 0.011566, -0.022400,-0.019775, -0.021088, -0.253418,-0.051971, 0.167175, -0.014832
263, 2620000.000000,-0.000183, 0.011353, -0.015747,-0.021790, -0.022034, -0.248596,-0.048706, 0.168121, -0.020538
264, 2630000.000000,-0.000183, 0.011353, -0.015747,-0.021790, -0.022034, -0.248596,-0.048706, 0.168121, -0.020538
265, 2640000.000000,-0.001129, 0.011658, -0.015045,-0.021790, -0.022034, -0.248596,-0.048706, 0.168121, -0.020538
266, 2650000.000000,-0.001129, 0.011658, -0.015045,-0.021790, -0.022034, -0.248596,-0.048706, 0.168121, -0.020538
267, 2660000.000000,-0.000946, 0.010834, -0.014069,-0.019684, -0.022949, -0.259033,-0.049744, 0.168274, -0.020844
268, 2670000.000000,-0.000946, 0.010834, -0.014069,-0.019684, -0.022949, -0.259033,-0.049744, 0.168274, -0.020844
269, 2680000.000000,-0.000916, 0.010101, -0.014862,-0.019684, -0.022949, -0.259033,-0.049744, 0.168274, -0.020844
270, 2690000.000000,-0.000916, 0.010101, -0.014862,-0.019684, -0.022949, -0.259033,-0.049744, 0.168274, -0.020844
271, 2700000.000000,-0.000916, 0.010101, -0.014862,-0.019684, -0.022949, -0.251221,-0.049744, 0.168060, -0.011444
272, 2710000.000000,-0.001160, 0.011383, -0.015106,-0.022583, -0.022125, -0.255890,-0.049744, 0.168060, -0.011444
273, 2720000.000000,-0.001160, 0.011383, -0.015106,-0.022583, -0.022125, -0.255890,-0.049744, 0.168060, -0.011444
274, 2730000.000000,-0.000549, 0.010376, -0.014893,-0.022583, -0.022125, -0.255890,-0.049744, 0.168060, -0.011444
275, 2740000.000000,-0.000549, 0.010376, -0.014893,-0.022583, -0.022125, -0.255890,-0.049744, 0.168060, -0.011444
276, 2750000.000000,-0.000549, 0.010376, -0.014893,-0.019897, -0.022644, -0.256378,-0.049042, 0.167603, -0.011902
277, 2760000.000000,-0.000275, 0.011017, -0.014343,-0.019897, -0.022644, -0.256378,-0.049042, 0.167603, -0.011902
278, 2770000.000000,-0.000275, 0.011017, -0.014343,-0.019897, -0.022644, -0.256378,-0.049042, 0.167603, -0.011902
279, 2780000.000000,-0.000275, 0.011749, -0.015137,-0.019897, -0.022644, -0.256378,-0.049042, 0.167603, -0.011902
280, 2790000.000000,-0.000275, 0.011749, -0.015137,-0.019897, -0.022644, -0.256378,-0.050781, 0.167755, -0.012909
281, 2800000.000000,-0.000275, 0.010712, -0.015259,-0.024048, -0.022339, -0.254181,-0.050781, 0.167755, -0.012909
282, 2810000.000000,-0.001465, 0.010712, -0.015259,-0.024048, -0.022339, -0.254181,-0.050781, 0.167755, -0.012909
283, 2820000.000000,-0.001465, 0.010712, -0.015259,-0.024048, -0.022339, -0.254181,-0.050781, 0.167755, -0.012909
284, 2830000.000000,0.000244, 0.010193, -0.015228,-0.024048, -0.022339, -0.254181,-0.050781, 0.167755, -0.012909
285, 2840000.000000,0.000244, 0.010193, -0.015228,-0.020508, -0.023315, -0.252991,-0.051697, 0.167114, -0.021606
286, 2850000.000000,-0.000824, 0.011688, -0.015503,-0.020508, -0.023315, -0.252991,-0.051697, 0.167114, -0.021606
287, 2860000.000000,-0.000824, 0.011688, -0.015503,-0.020508, -0.023315, -0.252991,-0.051697, 0.167114, -0.021606
288, 2870000.000000,-0.001038, 0.012085, -0.014008,-0.020508, -0.023315, -0.255432,-0.048645, 0.167145, -0.018127
289, 2880000.000000,-0.001038, 0.012085, -0.014008,-0.020782, -0.023102, -0.255432,-0.048645, 0.167145, -0.018127
290, 2890000.000000,-0.000427, 0.011139, -0.014374,-0.020782, -0.023102, -0.255432,-0.048645, 0.167145, -0.018127
291, 2900000.000000,-0.000427, 0.011139, -0.014374,-0.020782, -0.023102, -0.255432,-0.048645, 0.167145, -0.018127
292, 2910000.000000,-0.000427, 0.011139, -0.014435,-0.020782, -0.023102, -0.255432,-0.048645, 0.167145, -0.018127
293, 2920000.000000,0.000000, 0.011017, -0.014435,-0.021362, -0.023651, -0.253693,-0.052216, 0.167053, -0.013855
294, 2930000.000000,0.000000, 0.011017, -0.014435,-0.021362, -0.023651, -0.253693,-0.052216, 0.167053, -0.013855
295, 2940000.000000,-0.000641, 0.010284, -0.014832,-0.021362, -0.023651, -0.253693,-0.052216, 0.167053, -0.013855
296, 2950000.000000,-0.000641, 0.010284, -0.014832,-0.021362, -0.023651, -0.253693,-0.052216, 0.167053, -0.013855
297, 2960000.000000,-0.000641, 0.010284, -0.013947,-0.021362, -0.015839, -0.256195,-0.047638, 0.165894, -0.019562
298, 2970000.000000,-0.000793, 0.012695, -0.013947,-0.021820, -0.023407, -0.256195,-0.047638, 0.165894, -0.019562
299, 2980000.000000,-0.000793, 0.012695, -0.013947,-0.021820, -0.023407, -0.256195,-0.047638, 0.165894, -0.019562
300, 2990000.000000,-0.000366, 0.011932, -0.014282,-0.021820, -0.023407, -0.256195,-0.047638, 0.165894, -0.019562
301, 3000000.000000,-0.000366, 0.011932, -0.014282,-0.021820, -0.023407, -0.256195,-0.047638, 0.165894, -0.019562
302, 3010000.000000,-0.000153, 0.011841, -0.014221,-0.022308, -0.021027, -0.253296,-0.048584, 0.168213, -0.018127
303, 3020000.000000,-0.000153, 0.011841, -0.014221,-0.022308, -0.021027, -0.253296,-0.048584, 0.168213, -0.018127
304, 3030000.000000,-0.000153, 0.011841, -0.014221,-0.022308, -0.021027, -0.253296,-0.048584, 0.168213, -0.018127
305, 3040000.000000,-0.000793, 0.010773, -0.014587,-0.022308, -0.021027, -0.253296,-0.048584, 0.168213, -0.018127
306, 3050000.000000,-0.000793, 0.010773, -0.014587,-0.022308, -0.021027, -0.255829,-0.048615, 0.165802, -0.010406
307, 3060000.000000,-0.000549, 0.010620, -0.015839,-0.022247, -0.022705, -0.255829,-0.048615, 0.165802, -0.010406
308, 3070000.000000,-0.000549, 0.010620, -0.015839,-0.022247, -0.022705, -0.255829,-0.048615, 0.165802, -0.010406
309, 3080000.000000,-0.000549, 0.010620, -0.015839,-0.022247, -0.022705, -0.255829,-0.048615, 0.165802, -0.010406
310, 3090000.000000,0.000000, 0.011230, -0.015442,-0.022247, -0.022705, -0.255829,-0.048615, 0.165802, -0.017059
311, 3100000.000000,0.000000, 0.011230, -0.015442,-0.020416, -0.023193, -0.257111,-0.051147, 0.167267, -0.017059
312, 3110000.000000,0.000122, 0.010803, -0.015411,-0.020416, -0.023193, -0.257111,-0.051147, 0.167267, -0.017059
313, 3120000.000000,0.000122, 0.010803, -0.015411,-0.020416, -0.023193, -0.257111,-0.051147, 0.167267, -0.017059
314, 3130000.000000,-0.000153, 0.012024, -0.015198,-0.020416, -0.023193, -0.257111,-0.051147, 0.167267, -0.017059
315, 3140000.000000,-0.000153, 0.012024, -0.015198,-0.021973, -0.023438, -0.260223,-0.050842, 0.169067, -0.010529
316, 3150000.000000,-0.000153, 0.012024, -0.015228,-0.021973, -0.023438, -0.260223,-0.050842, 0.169067, -0.010529
317, 3160000.000000,-0.000214, 0.010925, -0.015228,-0.021973, -0.023438, -0.260223,-0.050842, 0.169067, -0.010529
318, 3170000.000000,-0.000214, 0.010925, -0.015228,-0.021973, -0.023438, -0.260223,-0.050842, 0.169067, -0.010529
319, 3180000.000000,-0.000641, 0.011993, -0.014496,-0.021973, -0.023438, -0.253448,-0.052887, 0.168854, -0.015076
320, 3190000.000000,-0.000641, 0.011993, -0.014496,-0.021667, -0.022583, -0.253448,-0.052887, 0.168854, -0.015076
321, 3200000.000000,-0.000641, 0.011993, -0.015442,-0.021667, -0.022583, -0.253448,-0.052887, 0.168854, -0.015076
322, 3210000.000000,-0.001007, 0.012573, -0.015442,-0.021667, -0.022583, -0.253448,-0.052887, 0.168854, -0.015076
323, 3220000.000000,-0.001007, 0.012573, -0.015442,-0.021667, -0.022583, -0.253448,-0.052887, 0.168854, -0.015076
324, 3230000.000000,-0.000336, 0.012939, -0.014923,-0.022400, -0.022125, -0.252136,-0.050507, 0.165649, -0.018036
325, 3240000.000000,-0.000336, 0.012939, -0.014923,-0.022400, -0.022125, -0.252136,-0.050507, 0.165649, -0.018036
326, 3250000.000000,-0.000305, 0.012573, -0.013947,-0.022400, -0.022125, -0.252136,-0.050507, 0.165649, -0.018036
327, 3260000.000000,-0.000305, 0.012573, -0.013947,-0.022400, -0.022125, -0.252136,-0.050507, 0.165649, -0.018036
328, 3270000.000000,-0.000305, 0.010468, -0.014771,-0.019928, -0.022919, -0.256958,-0.048035, 0.168549, -0.018677
329, 3280000.000000,-0.000122, 0.010468, -0.014771,-0.019928, -0.022919, -0.256958,-0.048035, 0.168549, -0.018677
330, 3290000.000000,-0.000732, 0.010071, -0.014618,-0.019928, -0.022919, -0.256958,-0.048035, 0.168549, -0.018677
331, 3300000.000000,-0.000732, 0.010071, -0.014618,-0.022736, -0.021484, -0.254639,-0.054016, 0.159485, -0.011688
332, 3310000.000000,-0.001251, 0.010071, -0.015137,-0.022736, -0.021484, -0.254639,-0.054016, 0.159485, -0.011688
333, 3320000.000000,-0.001251, 0.010071, -0.015137,-0.022736, -0.021484, -0.254639,-0.054016, 0.159485, -0.011688
334, 3330000.000000,-0.000885, 0.011139, -0.016052,-0.022736, -0.021484, -0.254639,-0.054016, 0.159485, -0.011688
335, 3340000.000000,-0.000885, 0.011139, -0.016052,-0.021973, -0.021545, -0.258148,-0.052185, 0.167419, -0.015076
336, 3350000.000000,-0.000702, 0.010895, -0.014923,-0.021973, -0.021545, -0.258148,-0.052185, 0.167419, -0.015076
337, 3360000.000000,-0.000702, 0.010895, -0.014923,-0.021973, -0.021545, -0.258148,-0.052185, 0.167419, -0.015076
338, 3370000.000000,-0.001434, 0.012146, -0.015991,-0.021973, -0.021545, -0.258148,-0.052185, 0.167419, -0.015076
339, 3380000.000000,-0.001434, 0.012146, -0.015991,-0.019897, -0.021637, -0.252686,-0.053070, 0.166138, -0.014526
340, 3390000.000000,-0.001434, 0.012146, -0.015991,-0.019897, -0.021637, -0.252686,-0.053070, 0.166138, -0.014526
341, 3400000.000000,-0.000977, 0.011810, -0.016113,-0.019897, -0.021637, -0.252686,-0.053070, 0.166138, -0.014526
342, 3410000.000000,-0.000977, 0.011810, -0.016113,-0.019897, -0.021637, -0.252686,-0.053070, 0.166138, -0.014526
343, 3420000.000000,-0.000214, 0.010986, -0.014954,-0.019897, -0.021637, -0.252838,-0.049408, 0.167450, -0.016754
344, 3430000.000000,-0.000214, 0.010986, -0.014954,-0.022614, -0.022705, -0.252838,-0.049408, 0.167450, -0.016754
345, 3440000.000000,-0.000366, 0.009888, -0.014099,-0.022614, -0.022705, -0.252838,-0.049408, 0.167450, -0.016754
346, 3450000.000000,-0.000366, 0.009888, -0.014099,-0.022614, -0.022705, -0.252838,-0.049408, 0.167450, -0.016754
347, 3460000.000000,-0.000366, 0.009888, -0.014099,-0.022614, -0.022705, -0.252838,-0.049408, 0.167450, -0.016754
348, 3470000.000000,-0.000488, 0.010590, -0.014618,-0.022888, -0.022980, -0.259827,-0.048340, 0.166687, -0.019409
349, 3480000.000000,-0.000488, 0.010590, -0.014618,-0.022888, -0.022980, -0.259827,-0.048340, 0.166687, -0.019409
350, 3490000.000000,-0.000916, 0.010986, -0.015564,-0.022888, -0.022980, -0.259827,-0.048340, 0.166687, -0.019409
351, 3500000.000000,-0.000916, 0.010986, -0.015564,-0.022888, -0.022980, -0.259827,-0.048340, 0.166687, -0.019409
352, 3510000.000000,-0.000366, 0.010437, -0.015472,-0.020538, -0.023010, -0.261444,-0.049286, 0.165558, -0.015747
353, 3520000.000000,-0.000366, 0.010437, -0.015472,-0.020538, -0.023010, -0.261444,-0.049286, 0.165558, -0.015747
354, 3530000.000000,-0.000366, 0.010437, -0.016388,-0.020538, -0.023010, -0.261444,-0.049286, 0.165558, -0.015747
355, 3540000.000000,-0.001312, 0.010803, -0.016388,-0.020538, -0.023010, -0.261444,-0.049286, 0.165558, -0.015747
356, 3550000.000000,-0.001312, 0.010803, -0.016388,-0.022980, -0.021423, -0.254700,-0.049255, 0.167725, -0.016022
357, 3560000.000000,-0.000427, 0.011322, -0.015594,-0.022980, -0.021423, -0.254700,-0.049255, 0.167725, -0.016022
358, 3570000.000000,-0.000427, 0.011322, -0.015594,-0.022980, -0.021423, -0.254700,-0.049255, 0.167725, -0.016022
359, 3580000.000000,0.007385, 0.011414, -0.014771,-0.022980, -0.021423, -0.254700,-0.049255, 0.167725, -0.016022
360, 3590000.000000,0.000244, 0.011414, -0.014771,-0.022980, -0.021423, -0.254700,-0.049255, 0.167725, -0.023834
361, 3600000.000000,0.000244, 0.011414, -0.014771,-0.021973, -0.021790, -0.250885,-0.047180, 0.166107, -0.025116
362, 3610000.000000,0.000031, 0.010925, -0.015167,-0.021973, -0.021790, -0.250885,-0.047180, 0.166107, -0.025116
363, 3620000.000000,0.000031, 0.010925, -0.015167,-0.021973, -0.021790, -0.250885,-0.047180, 0.166107, -0.025116
364, 3630000.000000,0.000275, 0.010376, -0.015747,-0.021973, -0.021790, -0.250885,-0.047180, 0.166107, -0.025116
365, 3640000.000000,0.000275, 0.010376, -0.015747,-0.021484, -0.022919, -0.261078,-0.050476, 0.167938, -0.007050
366, 3650000.000000,0.000275, 0.010376, -0.015747,-0.021484, -0.022919, -0.261078,-0.050476, 0.167938, -0.007050
367, 3660000.000000,0.000214, 0.010468, -0.014923,-0.021484, -0.022919, -0.261078,-0.050476, 0.167938, -0.007050
368, 3670000.000000,0.000214, 0.010468, -0.014923,-0.021484, -0.022919, -0.261078,-0.050476, 0.167938, -0.007050
369, 3680000.000000,0.000122, 0.011627, -0.014740,-0.021484, -0.022919, -0.261078,-0.050476, 0.167938, -0.014862
370, 3690000.000000,0.000122, 0.011627, -0.014740,-0.020660, -0.022919, -0.258087,-0.053314, 0.167480, -0.011749
371, 3700000.000000,0.000122, 0.011627, -0.014740,-0.020660, -0.022919, -0.258087,-0.053314, 0.167480, -0.011749
372, 3710000.000000,-0.000732, 0.010101, -0.014771,-0.020660, -0.022919, -0.258087,-0.053314, 0.167480, -0.011749
373, 3720000.000000,-0.000732, 0.010101, -0.014771,-0.020660, -0.022919, -0.258087,-0.053314, 0.167480, -0.011749
374, 3730000.000000,-0.001709, 0.011383, -0.015381,-0.022430, -0.021942, -0.263336,-0.051331, 0.168549, -0.018005
375, 3740000.000000,-0.001709, 0.011383, -0.015381,-0.022430, -0.021942, -0.263336,-0.051331, 0.168549, -0.018005
376, 3750000.000000,-0.000214, 0.011627, -0.015015,-0.022430, -0.021942, -0.263336,-0.051331, 0.168549, -0.018005
377, 3760000.000000,-0.000214, 0.011627, -0.015015,-0.022430, -0.021942, -0.263336,-0.051331, 0.168549, -0.018005
378, 3770000.000000,-0.000214, 0.011627, -0.015015,-0.022430, -0.021332, -0.253906,-0.047791, 0.167877, -0.023102
379, 3780000.000000,-0.000977, 0.011322, -0.015717,-0.022552, -0.021332, -0.253906,-0.047791, 0.167877, -0.023102
380, 3790000.000000,-0.000977, 0.011322, -0.015717,-0.022552, -0.021332, -0.253906,-0.047791, 0.167877, -0.023102
381, 3800000.000000,-0.000458, 0.012573, -0.014282,-0.022552, -0.021332, -0.253906,-0.047791, 0.167877, -0.023102
382, 3810000.000000,-0.000458, 0.012573, -0.014282,-0.022552, -0.021332, -0.253906,-0.047791, 0.167877, -0.023102
383, 3820000.000000,-0.000458, 0.012573, -0.014282,-0.021759, -0.021698, -0.257294,-0.051025, 0.165741, -0.013123
384, 3830000.000000,0.000092, 0.011749, -0.014984,-0.021759, -0.021698, -0.257294,-0.051025, 0.165741, -0.013123
385, 3840000.000000,0.000092, 0.011749, -0.014984,-0.021759, -0.021698, -0.257294,-0.051025, 0.165741, -0.013123
386, 3850000.000000,-0.000305, 0.012299, -0.015106,-0.021759, -0.021698, -0.257294,-0.051025, 0.165741, -0.013123
387, 3860000.000000,-0.000305, 0.012299, -0.015106,-0.021759, -0.022522, -0.258820,-0.053314, 0.168518, -0.015930
388, 3870000.000000,-0.000305, 0.012299, -0.016022,-0.023956, -0.022522, -0.258820,-0.053314, 0.168518, -0.015930
389, 3880000.000000,-0.001251, 0.010468, -0.016022,-0.023956, -0.022522, -0.258820,-0.053314, 0.168518, -0.015930
390, 3890000.000000,-0.001251, 0.010468, -0.016022,-0.023956, -0.022522, -0.258820,-0.053314, 0.168518, -0.015930
391, 3900000.000000,-0.001740, 0.010376, -0.015533,-0.023956, -0.022522, -0.258820,-0.049377, 0.167267, -0.020386
392, 3910000.000000,-0.001740, 0.010376, -0.015533,-0.022736, -0.022308, -0.260895,-0.049377, 0.167267, -0.020386
393, 3920000.000000,-0.000549, 0.011169, -0.014465,-0.022736, -0.022308, -0.260895,-0.049377, 0.167267, -0.020386
394, 3930000.000000,-0.000549, 0.011169, -0.014465,-0.022736, -0.022308, -0.260895,-0.049377, 0.167267, -0.020386
395, 3940000.000000,-0.000702, 0.010773, -0.015137,-0.022736, -0.022308, -0.260895,-0.049377, 0.167267, -0.017548
396, 3950000.000000,-0.000702, 0.010773, -0.015137,-0.022125, -0.020813, -0.256531,-0.048584, 0.167908, -0.017548
397, 3960000.000000,-0.000641, 0.011108, -0.014587,-0.022125, -0.020813, -0.256531,-0.048584, 0.167908, -0.017548
398, 3970000.000000,-0.000641, 0.011108, -0.014740,-0.022125, -0.020813, -0.256531,-0.048584, 0.167908, -0.023041
399, 3980000.000000,-0.000763, 0.010437, -0.014740,-0.020447, -0.022583, -0.251251,-0.047546, 0.165955, -0.023041
400, 3990000.000000,-0.000763, 0.010437, -0.014740,-0.020447, -0.022583, -0.251251,-0.047546, 0.165955, -0.023041
401, 4000000.000000,-0.000366, 0.010864, -0.014954,-0.020447, -0.022583, -0.251251,-0.047546, 0.165955, -0.023041
402, 4010000.000000,-0.000366, 0.010864, -0.014954,-0.020447, -0.022583, -0.251251,-0.047546, 0.165955, -0.023041
403, 4020000.000000,-0.001312, 0.010834, -0.014832,-0.023895, -0.022247, -0.258118,-0.047791, 0.167603, -0.013000
404, 4030000.000000,-0.001312, 0.010834, -0.014832,-0.023895, -0.022247, -0.258118,-0.047791, 0.167603, -0.013000
405, 4040000.000000,-0.001129, 0.011414, -0.015228,-0.023895, -0.022247, -0.258118,-0.047791, 0.167603, -0.013000
406, 4050000.000000,-0.001129, 0.011414, -0.015228,-0.023895, -0.022247, -0.258118,-0.047791, 0.167603, -0.013000
407, 4060000.000000,-0.001129, 0.011414, -0.014404,-0.020203, -0.022797, -0.258575,-0.051300, 0.167267, -0.015564
408, 4070000.000000,-0.001251, 0.011047, -0.014404,-0.020203, -0.022797, -0.258575,-0.051300, 0.167267, -0.015564
409, 4080000.000000,-0.001251, 0.011047, -0.014404,-0.020203, -0.022797, -0.258575,-0.051300, 0.167267, -0.015564
410, 4090000.000000,-0.000641, 0.008514, -0.014465,-0.020203, -0.022797, -0.258575,-0.051300, 0.167267, -0.015564
411, 4100000.000000,-0.000641, 0.008514, -0.014465,-0.019745, -0.023315, -0.257690,-0.049774, 0.166138, -0.019623
412, 4110000.000000,-0.001984, 0.007538, -0.014832,-0.019745, -0.023315, -0.257690,-0.049774, 0.166138, -0.019623
413, 4120000.000000,-0.001984, 0.007538, -0.014832,-0.019745, -0.023315, -0.257690,-0.049774, 0.166138, -0.019623
414, 4130000.000000,-0.001984, 0.005096, -0.015320,-0.019745, -0.023315, -0.257690,-0.049774, 0.166138, -0.019623
415, 4140000.000000,-0.001465, 0.005096, -0.015320,-0.019958, -0.020660, -0.253906,-0.049011, 0.166473, -0.019318
416, 4150000.000000,-0.002411, 0.006317, -0.015503,-0.019958, -0.020660, -0.253906,-0.049011, 0.166473, -0.019318
417, 4160000.000000,-0.002411, 0.006317, -0.015503,-0.019958, -0.020660, -0.253906,-0.049011, 0.166473, -0.019318
418, 4170000.000000,-0.002411, 0.009186, -0.016968,-0.019958, -0.020660, -0.253906,-0.049011, 0.166473, -0.019318
419, 4180000.000000,-0.001678, 0.009186, -0.016968,-0.021271, -0.022888, -0.256073,-0.049957, 0.163544, -0.018829
420, 4190000.000000,-0.001678, 0.009186, -0.016968,-0.021271, -0.022888, -0.256073,-0.049957, 0.163544, -0.018829
421, 4200000.000000,-0.000214, 0.010040, -0.015930,-0.021271, -0.022888, -0.256073,-0.049957, 0.163544, -0.018829
422, 4210000.000000,-0.000214, 0.010040, -0.015930,-0.021271, -0.022888, -0.256073,-0.049957, 0.163544, -0.018829
423, 4220000.000000,0.000000, 0.009338, -0.017242,-0.021484, -0.021362, -0.250519,-0.051422, 0.167694, -0.013428
424, 4230000.000000,0.000000, 0.009338, -0.017242,-0.021484, -0.021362, -0.250519,-0.051422, 0.167694, -0.013428
425, 4240000.000000,0.000000, 0.010071, -0.015198,-0.021484, -0.021362, -0.250519,-0.051422, 0.167694, -0.013428
426, 4250000.000000,0.000000, 0.010071, -0.015198,-0.021484, -0.021362, -0.250519,-0.051422, 0.167694, -0.013428
427, 4260000.000000,-0.007812, 0.010620, -0.014648,-0.022003, -0.022980, -0.255157,-0.050964, 0.165985, -0.017365
428, 4270000.000000,-0.000458, 0.010620, -0.014648,-0.022003, -0.022980, -0.255157,-0.050964, 0.165985, -0.017365
429, 4280000.000000,-0.000458, 0.010620, -0.014648,-0.022003, -0.022980, -0.255157,-0.050964, 0.165985, -0.017365
430, 4290000.000000,-0.000519, 0.010223, -0.015045,-0.022003, -0.022980, -0.255157,-0.050964, 0.165985, -0.017365
431, 4300000.000000,-0.000519, 0.010223, -0.015045,-0.022003, -0.022980, -0.260162,-0.049011, 0.166626, -0.020508
432, 4310000.000000,-0.000854, 0.009583, -0.014801,-0.022491, -0.022369, -0.260162,-0.049011, 0.166626, -0.020508
433, 4320000.000000,-0.000854, 0.009583, -0.014801,-0.022491, -0.022369, -0.260162,-0.049011, 0.166626, -0.020508
434, 4330000.000000,-0.000336, 0.008698, -0.015411,-0.022491, -0.022369, -0.260162,-0.049011, 0.166626, -0.020508
435, 4340000.000000,-0.000336, 0.008698, -0.015411,-0.022491, -0.022369, -0.252899,-0.047638, 0.167938, -0.020782
436, 4350000.000000,-0.000336, 0.010498, -0.015594,-0.023773, -0.021088, -0.252899,-0.047638, 0.167938, -0.020782
437, 4360000.000000,0.000366, 0.010498, -0.015594,-0.023773, -0.021088, -0.252899,-0.047638, 0.167938, -0.020782
438, 4370000.000000,0.000366, 0.010498, -0.015594,-0.023773, -0.021088, -0.252899,-0.047638, 0.167938, -0.020782
439, 4380000.000000,-0.000336, 0.011261, -0.015961,-0.023773, -0.021088, -0.252899,-0.047638, 0.167938, -0.010468
440, 4390000.000000,-0.000336, 0.011261, -0.015961,-0.021240, -0.022491, -0.258453,-0.045746, 0.166290, -0.010468
441, 4400000.000000,0.000000, 0.010773, -0.015320,-0.021240, -0.022491, -0.258453,-0.045746, 0.166290, -0.010468
442, 4410000.000000,0.000000, 0.010773, -0.015320,-0.021240, -0.022491, -0.258453,-0.045746, 0.166290, -0.010468
443, 4420000.000000,0.000000, 0.010773, -0.015961,-0.021240, -0.022491, -0.258453,-0.045746, 0.166290, -0.010468
444, 4430000.000000,0.000397, 0.012054, -0.015961,-0.022644, -0.022858, -0.256989,-0.055511, 0.163910, -0.011932
445, 4440000.000000,0.000397, 0.012054, -0.015961,-0.022644, -0.022858, -0.256989,-0.055511, 0.163910, -0.011932
446, 4450000.000000,0.000732, 0.012115, -0.014648,-0.022644, -0.022858, -0.256989,-0.055511, 0.163910, -0.011932
447, 4460000.000000,0.000732, 0.012115, -0.014648,-0.022644, -0.022858, -0.256989,-0.055511, 0.163910, -0.011932
448, 4470000.000000,-0.000641, 0.011200, -0.015533,-0.021271, -0.021881, -0.255402,-0.054504, 0.166107, -0.017700
449, 4480000.000000,-0.000641, 0.011200, -0.015533,-0.021271, -0.021881, -0.255402,-0.054504, 0.166107, -0.017700
450, 4490000.000000,0.000092, 0.010651, -0.014130,-0.021271, -0.021881, -0.255402,-0.054504, 0.166107, -0.017700
451, 4500000.000000,0.000092, 0.010651, -0.014130,-0.021271, -0.021881, -0.255402,-0.054504, 0.166107, -0.017700
452, 4510000.000000,0.000092, 0.010651, -0.014130,-0.021271, -0.021881, -0.254883,-0.050934, 0.167511, -0.010468
453, 4520000.000000,-0.000702, 0.010162, -0.015045,-0.020172, -0.022278, -0.254883,-0.050934, 0.167511, -0.010468
454, 4530000.000000,-0.000702, 0.010162, -0.015045,-0.020172, -0.022278, -0.254883,-0.050934, 0.167511, -0.010468
455, 4540000.000000,-0.000275, 0.010498, -0.014923,-0.020172, -0.022278, -0.254883,-0.050934, 0.167511, -0.010468
456, 4550000.000000,-0.000275, 0.010498, -0.014923,-0.020172, -0.022278, -0.252197,-0.051971, 0.166748, -0.012207
457, 4560000.000000,-0.000671, 0.010559, -0.014221,-0.021423, -0.021851, -0.252197,-0.051971, 0.166748, -0.012207
458, 4570000.000000,-0.000671, 0.010559, -0.014221,-0.021423, -0.021851, -0.252197,-0.051971, 0.166748, -0.012207
459, 4580000.000000,0.000122, 0.010651, -0.015106,-0.021423, -0.021851, -0.252197,-0.051971, 0.166748, -0.012207
460, 4590000.000000,0.000122, 0.010651, -0.015106,-0.023071, -0.023682, -0.258118,-0.047485, 0.164337, -0.020447
461, 4600000.000000,-0.000427, 0.010956, -0.014557,-0.023071, -0.023682, -0.258118,-0.047485, 0.164337, -0.020447
462, 4610000.000000,-0.000427, 0.010956, -0.014557,-0.023071, -0.023682, -0.258118,-0.047485, 0.164337, -0.020447
463, 4620000.000000,-0.001556, 0.011353, -0.015778,-0.023071, -0.023682, -0.258118,-0.047485, 0.164337, -0.020447
464, 4630000.000000,-0.001556, 0.011353, -0.015778,-0.022491, -0.023682, -0.256683,-0.049500, 0.166626, -0.010529
465, 4640000.000000,-0.001556, 0.010956, -0.016357,-0.022491, -0.023682, -0.256683,-0.049500, 0.166626, -0.010529
466, 4650000.000000,-0.000031, 0.010956, -0.016357,-0.022491, -0.023682, -0.256683,-0.049500, 0.166626, -0.010529
467, 4660000.000000,-0.000031, 0.010956, -0.016357,-0.022491, -0.023682, -0.256683,-0.049500, 0.166626, -0.010529
468, 4670000.000000,0.000153, 0.010590, -0.015259,-0.022491, -0.021698, -0.255310,-0.050293, 0.167023, -0.013885
469, 4680000.000000,0.000153, 0.010590, -0.015259,-0.022461, -0.021698, -0.255310,-0.050293, 0.167023, -0.013885
470, 4690000.000000,-0.002045, 0.009552, -0.015717,-0.022461, -0.021698, -0.255310,-0.050293, 0.167023, -0.013885
471, 4700000.000000,-0.002045, 0.009552, -0.015717,-0.022461, -0.021698, -0.255310,-0.050293, 0.167023, -0.013885
472, 4710000.000000,-0.000671, 0.010254, -0.015198,-0.022461, -0.023041, -0.255524,-0.050507, 0.166626, -0.021088
473, 4720000.000000,-0.000671, 0.010254, -0.015198,-0.020691, -0.023041, -0.255524,-0.050507, 0.166626, -0.021088
474, 4730000.000000,0.000031, 0.009735, -0.015747,-0.020691, -0.023041, -0.255524,-0.050507, 0.166626, -0.021088
475, 4740000.000000,0.000031, 0.009735, -0.015747,-0.020691, -0.023041, -0.255524,-0.050507, 0.166626, -0.021088
476, 4750000.000000,0.000031, 0.009735, -0.015747,-0.020691, -0.023041, -0.255768,-0.052582, 0.167206, -0.010651
477, 4760000.000000,0.000732, 0.009583, -0.016541,-0.020172, -0.021912, -0.255768,-0.052582, 0.167206, -0.010651
478, 4770000.000000,0.000732, 0.009583, -0.016541,-0.020172, -0.021912, -0.255768,-0.052582, 0.167206, -0.010651
479, 4780000.000000,0.001038, 0.011566, -0.016663,-0.020172, -0.021912, -0.255768,-0.052582, 0.167206, -0.010651
480, 4790000.000000,0.001038, 0.011566, -0.016663,-0.020172, -0.022278, -0.253845,-0.050049, 0.165710, -0.013245
481, 4800000.000000,-0.000458, 0.010010, -0.015442,-0.020264, -0.022278, -0.253845,-0.050049, 0.165710, -0.013245
482, 4810000.000000,0.000092, 0.010254, -0.015167,-0.020264, -0.022278, -0.253845,-0.050049, 0.165710, -0.013245
483, 4820000.000000,0.000092, 0.010254, -0.015167,-0.020264, -0.022278, -0.253845,-0.050049, 0.165710, -0.015717
484, 4830000.000000,0.000092, 0.010254, -0.022980,-0.022369, -0.023224, -0.251648,-0.047943, 0.167572, -0.015717
485, 4840000.000000,-0.000488, 0.009186, -0.016418,-0.022369, -0.023224, -0.251648,-0.047943, 0.167572, -0.015717
486, 4850000.000000,-0.000488, 0.009186, -0.016418,-0.022369, -0.023224, -0.251648,-0.047943, 0.167572, -0.015717
487, 4860000.000000,-0.000366, 0.010803, -0.015717,-0.022369, -0.023224, -0.251648,-0.047943, 0.167572, -0.015717
488, 4870000.000000,-0.000366, 0.010803, -0.015717,-0.022766, -0.021393, -0.249390,-0.046356, 0.167969, -0.023376
489, 4880000.000000,0.000610, 0.011871, -0.015381,-0.022766, -0.021393, -0.249390,-0.046356, 0.167969, -0.023376
490, 4890000.000000,0.000610, 0.011871, -0.015381,-0.022766, -0.021393, -0.249390,-0.046356, 0.167969, -0.023376
491, 4900000.000000,0.000366, 0.010437, -0.014740,-0.022766, -0.021393, -0.249390,-0.046356, 0.167969, -0.023376
492, 4910000.000000,0.000366, 0.010437, -0.014740,-0.022400, -0.020996, -0.251892,-0.053223, 0.168121, -0.016052
493, 4920000.000000,0.000366, 0.010437, -0.014740,-0.022400, -0.020996, -0.251892,-0.053223, 0.168121, -0.016052
494, 4930000.000000,-0.000153, 0.011078, -0.014160,-0.022400, -0.020996, -0.251892,-0.053223, 0.168121, -0.016052
495, 4940000.000000,-0.000153, 0.011078, -0.014160,-0.022400, -0.020996, -0.251892,-0.053223, 0.168121, -0.016052
496, 4950000.000000,-0.001404, 0.010498, -0.014923,-0.021973, -0.021973, -0.252289,-0.049377, 0.162354, -0.013763
497, 4960000.000000,-0.001404, 0.010498, -0.014923,-0.021973, -0.021973, -0.252289,-0.049377, 0.162354, -0.013763
498, 4970000.000000,-0.000427, 0.011322, -0.014221,-0.021973, -0.021973, -0.252289,-0.049377, 0.162354, -0.013763
499, 4980000.000000,-0.000427, 0.011322, -0.014221,-0.021973, -0.021973, -0.252289,-0.049377, 0.167999, -0.018646
500, 4990000.000000,-0.000122, 0.012817, -0.012573,-0.021667, -0.022583, -0.260803,-0.048798, 0.167999, -0.018646
501, 5000000.000000,-0.000122, 0.012817, -0.012573,-0.021667, -0.022583, -0.260803,-0.048798, 0.167999, -0.018646
502, 5010000.000000,-0.001465, 0.011322, -0.013306,-0.021667, -0.022583, -0.260803,-0.048798, 0.167999, -0.018646
503, 5020000.000000,-0.001465, 0.011322, -0.013306,-0.021667, -0.022583, -0.260803,-0.048798, 0.167603, -0.017303
504, 5030000.000000,-0.001495, 0.012329, -0.013519,-0.022125, -0.023102, -0.257111,-0.048553, 0.167603, -0.017303
505, 5040000.000000,-0.001495, 0.012329, -0.013519,-0.022125, -0.023102, -0.257111,-0.048553, 0.167603, -0.017303
506, 5050000.000000,-0.001251, 0.013977, -0.014709,-0.022125, -0.023102, -0.257111,-0.048553, 0.167603, -0.017303
507, 5060000.000000,-0.001251, 0.013977, -0.014709,-0.022125, -0.023102, -0.257111,-0.048553, 0.167603, -0.021515
508, 5070000.000000,-0.001251, 0.013977, -0.014771,-0.020508, -0.022858, -0.257111,-0.054169, 0.166168, -0.021515
509, 5080000.000000,-0.001099, 0.014038, -0.014771,-0.020508, -0.022858, -0.257111,-0.054169, 0.166168, -0.021515
510, 5090000.000000,-0.001099, 0.014038, -0.014771,-0.020508, -0.022858, -0.257111,-0.054169, 0.166168, -0.021515
511, 5100000.000000,-0.000580, 0.014618, -0.015015,-0.020508, -0.022858, -0.257111,-0.054169, 0.166168, -0.021515
512, 5110000.000000,-0.000580, 0.014618, -0.015015,-0.020782, -0.022552, -0.251862,-0.048553, 0.164825, -0.017365
513, 5120000.000000,-0.002167, 0.013824, -0.014832,-0.020782, -0.022552, -0.251862,-0.048553, 0.164825, -0.017365
514, 5130000.000000,-0.002167, 0.013824, -0.014832,-0.020782, -0.022552, -0.251862,-0.048553, 0.164825, -0.017365
515, 5140000.000000,-0.001740, 0.014069, -0.013458,-0.020782, -0.022552, -0.251862,-0.048553, 0.164825, -0.017365
516, 5150000.000000,-0.001740, 0.014069, -0.013458,-0.022095, -0.020874, -0.250031,-0.047729, 0.168365, -0.010773
517, 5160000.000000,-0.001740, 0.012634, -0.014008,-0.022095, -0.020874, -0.250031,-0.047729, 0.168365, -0.010773
518, 5170000.000000,-0.001221, 0.012634, -0.014008,-0.022095, -0.020874, -0.250031,-0.047729, 0.168365, -0.010773
519, 5180000.000000,-0.001526, 0.013092, -0.014984,-0.022095, -0.022247, -0.252228,-0.046112, 0.166687, -0.024261
520, 5190000.000000,-0.001526, 0.013092, -0.014984,-0.022736, -0.022247, -0.252228,-0.046112, 0.166687, -0.024261
521, 5200000.000000,-0.001740, 0.013336, -0.015106,-0.022736, -0.022247, -0.252228,-0.046112, 0.166687, -0.024261
522, 5210000.000000,-0.001740, 0.013336, -0.015106,-0.022736, -0.022247, -0.252228,-0.046112, 0.166687, -0.024261
523, 5220000.000000,-0.000336, 0.014191, -0.014801,-0.021515, -0.022430, -0.255066,-0.049957, 0.168152, -0.017578
524, 5230000.000000,-0.000336, 0.014191, -0.014801,-0.021515, -0.022430, -0.255066,-0.049957, 0.168152, -0.017578
525, 5240000.000000,-0.000854, 0.014313, -0.014191,-0.021515, -0.022430, -0.255066,-0.049957, 0.168152, -0.017578
526, 5250000.000000,-0.000854, 0.014313, -0.014191,-0.021515, -0.022430, -0.255066,-0.049957, 0.168152, -0.017578
527, 5260000.000000,-0.000671, 0.014557, -0.014038,-0.021057, -0.023132, -0.260132,-0.049255, 0.168365, -0.014130
528, 5270000.000000,-0.000671, 0.014557, -0.014038,-0.021057, -0.023132, -0.260132,-0.049255, 0.168365, -0.014130
529, 5280000.000000,-0.000671, 0.014557, -0.014038,-0.021057, -0.023132, -0.260132,-0.049255, 0.168365, -0.014130
530, 5290000.000000,-0.000183, 0.014038, -0.013611,-0.021057, -0.023132, -0.260132,-0.049255, 0.168365, -0.014130
531, 5300000.000000,-0.000183, 0.014038, -0.013611,-0.020691, -0.022827, -0.251038,-0.050812, 0.163727, -0.017334
532, 5310000.000000,0.000122, 0.013916, -0.014801,-0.020691, -0.022827, -0.251038,-0.050812, 0.163727, -0.017334
533, 5320000.000000,0.000122, 0.013916, -0.014801,-0.020691, -0.022827, -0.251038,-0.050812, 0.163727, -0.017334
534, 5330000.000000,0.000092, 0.014374, -0.014618,-0.020691, -0.022827, -0.251038,-0.050812, 0.163727, -0.017334
535, 5340000.000000,0.000092, 0.014374, -0.014618,-0.020691, -0.022705, -0.254089,-0.048462, 0.167664, -0.014618
536, 5350000.000000,0.000092, 0.014374, -0.014069,-0.019379, -0.022705, -0.254089,-0.048462, 0.167664, -0.014618
537, 5360000.000000,-0.001221, 0.013123, -0.014069,-0.019379, -0.022705, -0.254089,-0.048462, 0.167664, -0.014618
538, 5370000.000000,-0.001221, 0.013123, -0.014069,-0.019379, -0.022705, -0.254089,-0.048462, 0.167664, -0.014618
539, 5380000.000000,-0.001099, 0.012817, -0.015045,-0.022278, -0.021759, -0.256897,-0.054443, 0.164551, -0.017181
540, 5390000.000000,-0.001099, 0.012817, -0.015381,-0.022278, -0.021759, -0.256897,-0.054443, 0.164551, -0.017181
541, 5400000.000000,-0.000977, 0.011688, -0.015381,-0.022278, -0.021759, -0.256897,-0.054443, 0.164551, -0.017181
542, 5410000.000000,-0.000458, 0.012726, -0.015198,-0.022278, -0.021759, -0.256897,-0.054443, 0.164551, -0.015015
543, 5420000.000000,-0.000458, 0.012726, -0.015198,-0.021759, -0.022186, -0.259216,-0.047333, 0.168213, -0.015015
544, 5430000.000000,-0.001556, 0.013153, -0.015167,-0.021759, -0.022186, -0.259216,-0.047333, 0.168213, -0.015015
545, 5440000.000000,-0.001556, 0.013153, -0.015167,-0.021759, -0.022186, -0.259216,-0.047333, 0.168213, -0.015015
546, 5450000.000000,-0.001556, 0.013153, -0.015167,-0.021759, -0.022186, -0.259216,-0.047333, 0.168213, -0.017120
547, 5460000.000000,-0.000702, 0.012421, -0.015015,-0.022797, -0.022827, -0.257385,-0.046326, 0.165314, -0.017120
548, 5470000.000000,-0.000702, 0.012421, -0.015015,-0.022797, -0.022827, -0.257385,-0.046326, 0.165314, -0.017120
549, 5480000.000000,0.000275, 0.013458, -0.014923,-0.022797, -0.022827, -0.257385,-0.046326, 0.165314, -0.017120
550, 5490000.000000,0.000275, 0.013458, -0.014923,-0.022797, -0.022827, -0.257385,-0.046326, 0.168243, -0.016144
551, 5500000.000000,-0.000549, 0.011871, -0.014984,-0.021667, -0.024170, -0.252380,-0.053894, 0.168243, -0.016144
552, 5510000.000000,-0.000549, 0.011871, -0.014984,-0.021667, -0.024170, -0.252380,-0.053894, 0.168243, -0.016144
553, 5520000.000000,-0.000244, 0.012268, -0.014587,-0.021667, -0.024170, -0.252380,-0.053894, 0.168243, -0.016144
554, 5530000.000000,-0.000244, 0.012268, -0.014587,-0.021667, -0.024170, -0.252380,-0.053894, 0.168243, -0.011536
555, 5540000.000000,-0.000244, 0.011322, -0.014313,-0.022064, -0.021576, -0.253418,-0.050781, 0.166779, -0.011536
556, 5550000.000000,0.000031, 0.011322, -0.014313,-0.022064, -0.021576, -0.253418,-0.050781, 0.166779, -0.011536
557, 5560000.000000,0.000031, 0.011322, -0.014313,-0.022064, -0.021576, -0.253418,-0.050781, 0.166779, -0.011536
558, 5570000.000000,0.000031, 0.013031, -0.013611,-0.022064, -0.021576, -0.253418,-0.050781, 0.166779, -0.011536
559, 5580000.000000,0.000031, 0.011993, -0.014160,-0.020752, -0.022949, -0.254272,-0.048218, 0.166565, -0.015045
560, 5590000.000000,0.000519, 0.011993, -0.014160,-0.020752, -0.022949, -0.254272,-0.048218, 0.166565, -0.015045
561, 5600000.000000,0.001434, 0.011871, -0.015015,-0.020752, -0.022949, -0.254272,-0.048218, 0.166565, -0.015045
562, 5610000.000000,0.001434, 0.011871, -0.015015,-0.021576, -0.021729, -0.258759,-0.049133, 0.165894, -0.015381
563, 5620000.000000,0.001434, 0.011871, -0.014374,-0.021576, -0.021729, -0.258759,-0.049133, 0.165894, -0.015381
564, 5630000.000000,-0.000244, 0.012207, -0.014374,-0.021576, -0.021729, -0.258759,-0.049133, 0.165894, -0.015381
565, 5640000.000000,-0.000244, 0.012207, -0.014374,-0.021576, -0.021729, -0.258759,-0.049133, 0.165894, -0.015381
566, 5650000.000000,-0.002075, 0.010254, -0.014923,-0.021576, -0.022644, -0.257843,-0.051239, 0.167511, -0.017578
567, 5660000.000000,-0.002075, 0.010254, -0.014923,-0.021576, -0.022644, -0.257843,-0.051239, 0.167511, -0.017578
568, 5670000.000000,-0.001404, 0.011017, -0.014221,-0.021576, -0.022644, -0.257843,-0.051239, 0.167511, -0.017578
569, 5680000.000000,-0.001404, 0.011017, -0.014221,-0.021576, -0.022644, -0.257843,-0.051239, 0.167511, -0.017578
570, 5690000.000000,-0.000397, 0.012604, -0.015198,-0.021698, -0.022766, -0.252106,-0.053467, 0.166260, -0.017944
571, 5700000.000000,-0.000397, 0.012604, -0.015198,-0.021698, -0.022766, -0.252106,-0.053467, 0.166260, -0.017944
572, 5710000.000000,-0.001831, 0.011108, -0.015594,-0.021698, -0.022766, -0.252106,-0.053467, 0.166260, -0.017944
573, 5720000.000000,-0.001831, 0.011108, -0.015594,-0.021698, -0.022766, -0.252106,-0.053467, 0.166260, -0.017944
574, 5730000.000000,-0.001831, 0.011108, -0.015594,-0.021698, -0.021759, -0.256165,-0.049805, 0.166199, -0.013550
575, 5740000.000000,-0.000336, 0.012085, -0.015778,-0.022827, -0.021759, -0.256165,-0.049805, 0.166199, -0.013550
576, 5750000.000000,-0.000336, 0.012085, -0.015778,-0.022827, -0.021759, -0.256165,-0.049805, 0.166199, -0.013550
577, 5760000.000000,-0.000305, 0.011536, -0.015106,-0.022827, -0.021759, -0.256165,-0.049805, 0.166199, -0.013550
578, 5770000.000000,-0.000305, 0.011536, -0.015106,-0.022827, -0.021759, -0.259277,-0.051880, 0.167328, -0.016449
579, 5780000.000000,-0.001251, 0.012360, -0.015320,-0.020874, -0.023285, -0.259277,-0.051880, 0.167328, -0.016449
580, 5790000.000000,-0.001251, 0.012360, -0.015320,-0.020874, -0.023285, -0.259277,-0.051880, 0.167328, -0.016449
581, 5800000.000000,-0.002075, 0.012909, -0.014862,-0.020874, -0.023285, -0.259277,-0.051880, 0.167328, -0.016449
582, 5810000.000000,-0.002075, 0.012909, -0.014862,-0.021179, -0.021545, -0.255219,-0.053040, 0.167847, -0.013916
583, 5820000.000000,-0.001678, 0.012543, -0.014862,-0.021179, -0.021545, -0.255219,-0.053040, 0.167847, -0.013916
584, 5830000.000000,-0.001678, 0.012543, -0.014862,-0.021179, -0.021545, -0.255219,-0.053040, 0.167847, -0.013916
585, 5840000.000000,-0.001678, 0.012543, -0.014343,-0.021179, -0.021545, -0.255219,-0.053040, 0.167847, -0.013916
586, 5850000.000000,-0.001312, 0.012360, -0.014343,-0.021118, -0.021942, -0.258240,-0.048279, 0.168610, -0.023193
587, 5860000.000000,-0.001312, 0.012360, -0.014343,-0.021118, -0.021942, -0.258240,-0.048279, 0.168610, -0.023193
588, 5870000.000000,-0.001831, 0.010834, -0.014160,-0.021118, -0.021942, -0.258240,-0.048279, 0.168610, -0.023193
589, 5880000.000000,-0.001831, 0.010834, -0.014160,-0.021118, -0.021942, -0.258240,-0.048279, 0.168610, -0.023193
590, 5890000.000000,-0.000092, 0.011169, -0.014435,-0.021118, -0.021942, -0.258240,-0.040466, 0.164154, -0.015106
591, 5900000.000000,-0.000092, 0.011169, -0.014435,-0.020660, -0.022552, -0.260468,-0.046539, 0.164154, -0.015106
592, 5910000.000000,-0.000031, 0.010712, -0.014648,-0.020660, -0.022552, -0.260468,-0.046539, 0.164154, -0.015106
593, 5920000.000000,-0.000031, 0.010712, -0.014648,-0.020660, -0.022552, -0.260468,-0.046539, 0.164154, -0.015106
594, 5930000.000000,-0.000458, 0.011566, -0.014618,-0.020660, -0.022552, -0.261871,-0.050934, 0.166077, -0.018433
595, 5940000.000000,-0.000458, 0.011566, -0.014618,-0.021149, -0.022186, -0.261871,-0.050934, 0.166077, -0.018433
596, 5950000.000000,-0.000458, 0.011566, -0.014893,-0.021149, -0.022186, -0.261871,-0.050934, 0.166077, -0.018433
597, 5960000.000000,-0.001038, 0.011993, -0.014893,-0.021149, -0.022186, -0.261871,-0.050934, 0.166077, -0.018433
598, 5970000.000000,-0.001038, 0.011993, -0.014893,-0.021149, -0.022186, -0.261871,-0.050934, 0.165771, -0.018585
599, 5980000.000000,-0.000885, 0.013275, -0.015900,-0.021301, -0.023468, -0.252991,-0.048523, 0.165771, -0.018585
600, 5990000.000000,-0.000885, 0.013275, -0.015900,-0.021301, -0.023468, -0.252991,-0.048523, 0.165771, -0.018585
601, 6000000.000000,-0.001465, 0.012756, -0.015411,-0.021301, -0.023468, -0.252991,-0.048523, 0.165771, -0.018585
602, 6010000.000000,-0.001465, 0.012756, -0.015411,-0.021301, -0.022614, -0.256012,-0.049408, 0.168213, -0.015625
603, 6020000.000000,-0.000793, 0.010834, -0.014496,-0.022675, -0.022614, -0.256012,-0.049408, 0.168213, -0.015625
604, 6030000.000000,-0.000793, 0.010834, -0.014496,-0.022675, -0.022614, -0.256012,-0.049408, 0.168213, -0.015625
605, 6040000.000000,-0.000458, 0.010803, -0.015015,-0.022675, -0.022614, -0.256012,-0.049408, 0.168213, -0.015625
606, 6050000.000000,-0.000458, 0.010803, -0.015015,-0.020630, -0.022797, -0.253967,-0.047272, 0.165985, -0.017639
607, 6060000.000000,-0.001038, 0.010162, -0.014771,-0.020630, -0.022797, -0.253967,-0.047272, 0.165985, -0.017639
608, 6070000.000000,-0.001038, 0.010162, -0.014771,-0.020630, -0.022797, -0.253967,-0.047272, 0.165985, -0.017639
609, 6080000.000000,-0.001038, 0.010162, -0.014771,-0.020630, -0.022797, -0.253967,-0.047272, 0.165985, -0.017639
610, 6090000.000000,-0.001465, 0.009918, -0.014862,-0.020630, -0.022797, -0.251373,-0.048798, 0.165344, -0.017578
611, 6100000.000000,-0.001465, 0.009918, -0.014862,-0.020630, -0.022705, -0.251373,-0.048798, 0.165344, -0.017578
612, 6110000.000000,-0.000977, 0.010681, -0.015625,-0.020630, -0.022705, -0.251373,-0.048798, 0.165344, -0.017578
613, 6120000.000000,-0.000977, 0.010681, -0.015625,-0.020630, -0.022705, -0.251373,-0.048798, 0.165344, -0.017578
614, 6130000.000000,-0.000702, 0.012146, -0.015167,-0.020630, -0.022705, -0.243561,-0.051147, 0.168213, -0.012970
615, 6140000.000000,-0.000702, 0.012146, -0.015167,-0.021698, -0.021912, -0.248688,-0.051147, 0.168213, -0.012970
616, 6150000.000000,0.000580, 0.010681, -0.015625,-0.021698, -0.021912, -0.248688,-0.051147, 0.168213, -0.012970
617, 6160000.000000,0.000580, 0.010681, -0.015625,-0.021698, -0.021912, -0.248688,-0.051147, 0.168213, -0.012970
618, 6170000.000000,0.000580, 0.010681, -0.015503,-0.021698, -0.021912, -0.248688,-0.051147, 0.168365, -0.023499
619, 6180000.000000,-0.000031, 0.011108, -0.015503,-0.019440, -0.022461, -0.262726,-0.046814, 0.168365, -0.023499
620, 6190000.000000,-0.000031, 0.011108, -0.015533,-0.019440, -0.022461, -0.262726,-0.046814, 0.168365, -0.023499
621, 6200000.000000,-0.000397, 0.011444, -0.015533,-0.019440, -0.022461, -0.262726,-0.046814, 0.168365, -0.023499
622, 6210000.000000,-0.000153, 0.012512, -0.014160,-0.020691, -0.021606, -0.251831,-0.050446, 0.169403, -0.013214
623, 6220000.000000,-0.000153, 0.012512, -0.014160,-0.020691, -0.021606, -0.251831,-0.050446, 0.169403, -0.013214
624, 6230000.000000,-0.000153, 0.012512, -0.014160,-0.020691, -0.021606, -0.251831,-0.050446, 0.169403, -0.013214
625, 6240000.000000,-0.000366, 0.010834, -0.014435,-0.020691, -0.021606, -0.251831,-0.050446, 0.169403, -0.013214
626, 6250000.000000,-0.000366, 0.010834, -0.014435,-0.022003, -0.021271, -0.251282,-0.059875, 0.162933, -0.018951
627, 6260000.000000,0.000122, 0.011444, -0.014526,-0.022003, -0.021271, -0.251282,-0.059875, 0.162933, -0.018951
628, 6270000.000000,0.000122, 0.011444, -0.014526,-0.022003, -0.021271, -0.251282,-0.059875, 0.162933, -0.018951
629, 6280000.000000,-0.000580, 0.012878, -0.015442,-0.022003, -0.021271, -0.251282,-0.059875, 0.162933, -0.018951
630, 6290000.000000,-0.000580, 0.012878, -0.015442,-0.022003, -0.020660, -0.257019,-0.063171, 0.167450, -0.017151
631, 6300000.000000,-0.000153, 0.012115, -0.014404,-0.022034, -0.020660, -0.257019,-0.063171, 0.167450, -0.017151
632, 6310000.000000,-0.000153, 0.012115, -0.014404,-0.022034, -0.020660, -0.257019,-0.063171, 0.167450, -0.017151
633, 6320000.000000,-0.000153, 0.012115, -0.013824,-0.022034, -0.020660, -0.257019,-0.063171, 0.167450, -0.017151
634, 6330000.000000,-0.001038, 0.012054, -0.013824,-0.022034, -0.020660, -0.248962,-0.048920, 0.167725, -0.014465
635, 6340000.000000,-0.001038, 0.012054, -0.013824,-0.021423, -0.022675, -0.248962,-0.048920, 0.167725, -0.014465
636, 6350000.000000,-0.000366, 0.012207, -0.014893,-0.021423, -0.022675, -0.248962,-0.048920, 0.167725, -0.014465
637, 6360000.000000,-0.000366, 0.012207, -0.014893,-0.021423, -0.022675, -0.248962,-0.048920, 0.167725, -0.014465
638, 6370000.000000,0.000031, 0.011505, -0.015411,-0.021423, -0.022675, -0.248962,-0.048920, 0.167725, -0.013885
639, 6380000.000000,0.000031, 0.011505, -0.015411,-0.020142, -0.023041, -0.257568,-0.051361, 0.167694, -0.013885
640, 6390000.000000,-0.000366, 0.011475, -0.015198,-0.020142, -0.023041, -0.257568,-0.051361, 0.167694, -0.013885
641, 6400000.000000,-0.000366, 0.011475, -0.015198,-0.020142, -0.023041, -0.257568,-0.051361, 0.167694, -0.013885
642, 6410000.000000,-0.001160, 0.010773, -0.014862,-0.020142, -0.023041, -0.252777,-0.057312, 0.162872, -0.007629
643, 6420000.000000,-0.001160, 0.010773, -0.014862,-0.020844, -0.021210, -0.252777,-0.057312, 0.162872, -0.007629
644, 6430000.000000,-0.001160, 0.010773, -0.014923,-0.020844, -0.021210, -0.252777,-0.057312, 0.162872, -0.007629
645, 6440000.000000,0.000153, 0.010986, -0.014923,-0.020844, -0.021210, -0.252777,-0.057312, 0.162872, -0.007629
646, 6450000.000000,0.000153, 0.010986, -0.014923,-0.020844, -0.021210, -0.252777,-0.057312, 0.170685, -0.019928
647, 6460000.000000,-0.000824, 0.011993, -0.014618,-0.020020, -0.022583, -0.257751,-0.048187, 0.167358, -0.019928
648, 6470000.000000,-0.000824, 0.011993, -0.014618,-0.020020, -0.022583, -0.257751,-0.048187, 0.167358, -0.019928
649, 6480000.000000,-0.001434, 0.011108, -0.015411,-0.020020, -0.022583, -0.257751,-0.048187, 0.167358, -0.019928
650, 6490000.000000,-0.001434, 0.011108, -0.015411,-0.020020, -0.022583, -0.257751,-0.048187, 0.167358, -0.019928
651, 6500000.000000,-0.001434, 0.011108, -0.023224,-0.021576, -0.023071, -0.258575,-0.056458, 0.166626, -0.016083
652, 6510000.000000,-0.000183, 0.012054, -0.016846,-0.021576, -0.023071, -0.258575,-0.056458, 0.166626, -0.016083
653, 6520000.000000,-0.000183, 0.012054, -0.016846,-0.021576, -0.023071, -0.258575,-0.056458, 0.166626, -0.016083
654, 6530000.000000,-0.000519, 0.010437, -0.016235,-0.021576, -0.023071, -0.258575,-0.056458, 0.166626, -0.016083
655, 6540000.000000,-0.000519, 0.010437, -0.016235,-0.021576, -0.023346, -0.258545,-0.047272, 0.164093, -0.018738
656, 6550000.000000,0.000366, 0.011200, -0.014557,-0.021576, -0.023346, -0.258545,-0.047272, 0.164093, -0.018738
657, 6560000.000000,0.000366, 0.011200, -0.014557,-0.021576, -0.023346, -0.258545,-0.047272, 0.164093, -0.018738
658, 6570000.000000,0.000275, 0.011963, -0.014587,-0.021576, -0.023346, -0.258545,-0.047272, 0.164093, -0.018738
659, 6580000.000000,0.000275, 0.011963, -0.014587,-0.020874, -0.023376, -0.259613,-0.050690, 0.167633, -0.014954
660, 6590000.000000,0.000061, 0.009949, -0.014221,-0.020874, -0.023376, -0.259613,-0.050690, 0.167633, -0.014954
661, 6600000.000000,0.000061, 0.009949, -0.014221,-0.020874, -0.023376, -0.259613,-0.050690, 0.167633, -0.014954
662, 6610000.000000,0.000061, 0.009949, -0.014221,-0.020874, -0.023376, -0.259613,-0.050690, 0.167633, -0.014954
663, 6620000.000000,0.000305, 0.010529, -0.014282,-0.021179, -0.023224, -0.252441,-0.049530, 0.166626, -0.012787
664, 6630000.000000,0.000305, 0.010529, -0.014709,-0.021179, -0.023224, -0.252441,-0.049530, 0.166626, -0.012787
665, 6640000.000000,-0.000793, 0.011078, -0.014709,-0.021179, -0.023224, -0.252441,-0.049530, 0.166626, -0.012787
666, 6650000.000000,-0.000793, 0.011078, -0.014709,-0.021179, -0.023224, -0.252441,-0.049530, 0.166626, -0.012787
667, 6660000.000000,-0.000244, 0.010254, -0.014374,-0.019287, -0.023010, -0.254974,-0.050476, 0.167358, -0.015259
668, 6670000.000000,-0.000244, 0.010254, -0.014374,-0.019287, -0.023010, -0.254974,-0.050476, 0.167358, -0.015259
669, 6680000.000000,-0.001038, 0.009918, -0.014587,-0.019287, -0.023010, -0.254974,-0.050476, 0.167358, -0.015259
670, 6690000.000000,-0.001038, 0.009918, -0.014587,-0.019287, -0.023010, -0.254974,-0.050476, 0.167358, -0.015259
671, 6700000.000000,-0.001038, 0.009918, -0.014587,-0.019287, -0.023010, -0.254974,-0.050476, 0.167389, -0.014008
672, 6710000.000000,-0.000244, 0.009155, -0.014557,-0.021881, -0.023132, -0.257904,-0.048828, 0.167389, -0.014008
673, 6720000.000000,-0.000244, 0.009155, -0.014557,-0.021881, -0.023132, -0.257904,-0.048828, 0.167389, -0.014008
674, 6730000.000000,-0.000183, 0.009369, -0.015442,-0.021881, -0.023132, -0.257904,-0.048828, 0.167389, -0.014008
675, 6740000.000000,-0.000183, 0.009369, -0.015442,-0.021881, -0.023132, -0.257904,-0.048828, 0.167389, -0.014008
676, 6750000.000000,-0.000183, 0.009369, -0.015442,-0.021301, -0.022827, -0.259521,-0.047638, 0.167114, -0.019043
677, 6760000.000000,0.000244, 0.011383, -0.015320,-0.021301, -0.022827, -0.259521,-0.047638, 0.167114, -0.019043
678, 6770000.000000,0.000244, 0.011383, -0.015320,-0.021301, -0.022827, -0.259521,-0.047638, 0.167114, -0.019043
679, 6780000.000000,-0.002045, 0.012543, -0.014374,-0.021301, -0.022827, -0.259521,-0.047638, 0.167114, -0.019043
680, 6790000.000000,-0.002045, 0.012543, -0.014374,-0.020599, -0.023376, -0.256012,-0.050262, 0.167419, -0.011841
681, 6800000.000000,-0.002991, 0.012848, -0.014191,-0.020599, -0.023376, -0.256012,-0.050262, 0.167419, -0.011841
682, 6810000.000000,-0.002991, 0.012848, -0.014191,-0.020599, -0.023376, -0.256012,-0.050262, 0.167419, -0.011841
683, 6820000.000000,-0.000824, 0.010986, -0.014923,-0.020599, -0.023376, -0.256012,-0.050262, 0.167419, -0.011841
684, 6830000.000000,-0.000824, 0.010986, -0.014923,-0.022827, -0.022156, -0.254242,-0.055115, 0.166443, -0.017639
685, 6840000.000000,0.000122, 0.010712, -0.015656,-0.022827, -0.022156, -0.254242,-0.055115, 0.166443, -0.017639
686, 6850000.000000,0.000122, 0.010712, -0.015656,-0.022827, -0.022156, -0.254242,-0.055115, 0.166443, -0.017639
687, 6860000.000000,-0.000885, 0.011475, -0.015625,-0.022827, -0.022125, -0.252563,-0.051056, 0.162140, -0.016724
688, 6870000.000000,-0.000885, 0.011475, -0.015625,-0.020508, -0.022125, -0.252563,-0.051056, 0.162140, -0.016724
689, 6880000.000000,0.000000, 0.012146, -0.014923,-0.020508, -0.022125, -0.252563,-0.051056, 0.162140, -0.016724
690, 6890000.000000,0.000000, 0.012146, -0.014923,-0.020508, -0.022125, -0.252563,-0.051056, 0.162140, -0.016724
691, 6900000.000000,-0.000092, 0.011810, -0.014679,-0.020508, -0.022125, -0.256104,-0.050751, 0.168701, -0.018677
692, 6910000.000000,-0.000092, 0.011810, -0.014679,-0.020142, -0.023224, -0.256104,-0.050751, 0.168701, -0.018677
693, 6920000.000000,0.000092, 0.010498, -0.016052,-0.020142, -0.023224, -0.256104,-0.050751, 0.168701, -0.018677
694, 6930000.000000,0.000092, 0.010498, -0.016052,-0.020142, -0.023224, -0.256104,-0.050751, 0.168701, -0.018677
695, 6940000.000000,0.000092, 0.010498, -0.016052,-0.020142, -0.023224, -0.256104,-0.054657, 0.166748, -0.014404
696, 6950000.000000,-0.000488, 0.011414, -0.016418,-0.022095, -0.022491, -0.256561,-0.054657, 0.166748, -0.014404
697, 6960000.000000,-0.000488, 0.011414, -0.016418,-0.022095, -0.022491, -0.256561,-0.054657, 0.166748, -0.014404
698, 6970000.000000,-0.000336, 0.010193, -0.015076,-0.022095, -0.022491, -0.256561,-0.054657, 0.166748, -0.014404
699, 6980000.000000,-0.000336, 0.010193, -0.015076,-0.022095, -0.022491, -0.259003,-0.049133, 0.165924, -0.017059
700, 6990000.000000,-0.002228, 0.011658, -0.014191,-0.021515, -0.022705, -0.259003,-0.049133, 0.165924, -0.017059
701, 7000000.000000,-0.002228, 0.011658, -0.014191,-0.021515, -0.022705, -0.259003,-0.049133, 0.165924, -0.017059
702, 7010000.000000,-0.001434, 0.010864, -0.015472,-0.021515, -0.022705, -0.259003,-0.049133, 0.165924, -0.017059
703, 7020000.000000,-0.001434, 0.010864, -0.015472,-0.021515, -0.022705, -0.259003,-0.049133, 0.165924, -0.014496
704, 7030000.000000,-0.000305, 0.011658, -0.015076,-0.023346, -0.022064, -0.257324,-0.049866, 0.167206, -0.014496
705, 7040000.000000,-0.000305, 0.011658, -0.015076,-0.023346, -0.022064, -0.257324,-0.049866, 0.167206, -0.014496
706, 7050000.000000,-0.000702, 0.011078, -0.014709,-0.023346, -0.022064, -0.257324,-0.049866, 0.167206, -0.014496
707, 7060000.000000,-0.000702, 0.011078, -0.014709,-0.023346, -0.022064, -0.257324,-0.052063, 0.166962, -0.013000
708, 7070000.000000,-0.000702, 0.011078, -0.013977,-0.019409, -0.023895, -0.254333,-0.052063, 0.166962, -0.013000
709, 7080000.000000,0.000000, 0.011810, -0.013977,-0.019409, -0.023895, -0.254333,-0.052063, 0.166962, -0.013000
710, 7090000.000000,0.000000, 0.011810, -0.013977,-0.019409, -0.023895, -0.254333,-0.052063, 0.166962, -0.013000
711, 7100000.000000,-0.000732, 0.010834, -0.015045,-0.019409, -0.023895, -0.260773,-0.049011, 0.167145, -0.015808
712, 7110000.000000,-0.000732, 0.010834, -0.015045,-0.021484, -0.022125, -0.260773,-0.049011, 0.167145, -0.015808
713, 7120000.000000,-0.001221, 0.010834, -0.015411,-0.021484, -0.022125, -0.260773,-0.049011, 0.167145, -0.015808
714, 7130000.000000,-0.001221, 0.010834, -0.015411,-0.021484, -0.022125, -0.260773,-0.049011, 0.167145, -0.015808
715, 7140000.000000,-0.001221, 0.010834, -0.015411,-0.021484, -0.022125, -0.260773,-0.049011, 0.167145, -0.015808
716, 7150000.000000,-0.001190, 0.009888, -0.015289,-0.018372, -0.022003, -0.255432,-0.052032, 0.166809, -0.018555
717, 7160000.000000,-0.001190, 0.009888, -0.015289,-0.018372, -0.022003, -0.255432,-0.052032, 0.166809, -0.018555
718, 7170000.000000,0.000122, 0.010834, -0.014984,-0.018372, -0.022003, -0.255432,-0.052032, 0.166809, -0.018555
719, 7180000.000000,0.000122, 0.010834, -0.014984,-0.018372, -0.022003, -0.255432,-0.052032, 0.166809, -0.018555
720, 7190000.000000,-0.001099, 0.010345, -0.014435,-0.021790, -0.022980, -0.261139,-0.053802, 0.165741, -0.011932
721, 7200000.000000,-0.001099, 0.010345, -0.014435,-0.021790, -0.022980, -0.261139,-0.053802, 0.165741, -0.011932
722, 7210000.000000,-0.000885, 0.011261, -0.014618,-0.021790, -0.022980, -0.261139,-0.053802, 0.165741, -0.011932
723, 7220000.000000,-0.000885, 0.011261, -0.014618,-0.021790, -0.022980, -0.261139,-0.053802, 0.165741, -0.011932
724, 7230000.000000,-0.000885, 0.011261, -0.014954,-0.017853, -0.025421, -0.254272,-0.051361, 0.165894, -0.014191
725, 7240000.000000,-0.000214, 0.011536, -0.014954,-0.017853, -0.025421, -0.254272,-0.051361, 0.165894, -0.014191
726, 7250000.000000,-0.000031, 0.010651, -0.014709,-0.017853, -0.025421, -0.254272,-0.051361, 0.165894, -0.014191
727, 7260000.000000,-0.000031, 0.010651, -0.014709,-0.021332, -0.024261, -0.259155,-0.054382, 0.166107, -0.013672
728, 7270000.000000,0.001282, 0.010101, -0.014954,-0.021332, -0.024261, -0.259155,-0.054382, 0.166107, -0.013672
729, 7280000.000000,0.001282, 0.010101, -0.014954,-0.021332, -0.024261, -0.259155,-0.054382, 0.166107, -0.013672
730, 7290000.000000,0.001465, 0.010956, -0.013733,-0.021332, -0.024261, -0.259155,-0.054382, 0.166107, -0.013672
731, 7300000.000000,0.001465, 0.010956, -0.013733,-0.018433, -0.022369, -0.254425,-0.051971, 0.167419, -0.016632
732, 7310000.000000,-0.000519, 0.010345, -0.014679,-0.018433, -0.022369, -0.254425,-0.051971, 0.167419, -0.016632
733, 7320000.000000,-0.000519, 0.010345, -0.014679,-0.018433, -0.022369, -0.254425,-0.051971, 0.167419, -0.016632
734, 7330000.000000,-0.000305, 0.011505, -0.015106,-0.018433, -0.022369, -0.254425,-0.051971, 0.167419, -0.016632
735, 7340000.000000,-0.000305, 0.011505, -0.015106,-0.018890, -0.023407, -0.257751,-0.049377, 0.167023, -0.017059
736, 7350000.000000,-0.000305, 0.011505, -0.015076,-0.018890, -0.023407, -0.257751,-0.049377, 0.167023, -0.017059
737, 7360000.000000,-0.000977, 0.010071, -0.015076,-0.018890, -0.023407, -0.257751,-0.049377, 0.167023, -0.017059
738, 7370000.000000,-0.000977, 0.010071, -0.015076,-0.018890, -0.023407, -0.257751,-0.049377, 0.167023, -0.017059
739, 7380000.000000,0.000763, 0.008698, -0.014343,-0.021454, -0.025085, -0.258789,-0.050140, 0.166962, -0.020691
740, 7390000.000000,0.000763, 0.008698, -0.014343,-0.021454, -0.025085, -0.258789,-0.050140, 0.166962, -0.020691
741, 7400000.000000,-0.001282, 0.009796, -0.014679,-0.021454, -0.025085, -0.258789,-0.050140, 0.166962, -0.020691
742, 7410000.000000,-0.001282, 0.009796, -0.014679,-0.021454, -0.025085, -0.258789,-0.050140, 0.166962, -0.020691
743, 7420000.000000,0.000488, 0.010223, -0.014618,-0.022766, -0.022827, -0.259064,-0.053650, 0.166382, -0.013916
744, 7430000.000000,0.000488, 0.010223, -0.014618,-0.022766, -0.022827, -0.259064,-0.053650, 0.166382, -0.013916
745, 7440000.000000,0.000824, 0.009888, -0.014374,-0.022766, -0.022827, -0.259064,-0.053650, 0.166382, -0.013916
746, 7450000.000000,0.000824, 0.009888, -0.014374,-0.022766, -0.022827, -0.259064,-0.053650, 0.166382, -0.015869
747, 7460000.000000,-0.000458, 0.010284, -0.014435,-0.024017, -0.020844, -0.253540,-0.048767, 0.165161, -0.015869
748, 7470000.000000,-0.000458, 0.010284, -0.014435,-0.024017, -0.020844, -0.253540,-0.048767, 0.165161, -0.015869
749, 7480000.000000,-0.000458, 0.011597, -0.014343,-0.024017, -0.020844, -0.253540,-0.048767, 0.165161, -0.015869
750, 7490000.000000,0.000458, 0.011597, -0.014343,-0.024017, -0.020844, -0.253540,-0.048767, 0.165161, -0.015869
751, 7500000.000000,0.000458, 0.011597, -0.014343,-0.021515, -0.022919, -0.256622,-0.052826, 0.166473, -0.012482
752, 7510000.000000,0.000305, 0.011749, -0.013763,-0.021515, -0.022919, -0.256622,-0.052826, 0.166473, -0.012482
753, 7520000.000000,0.000305, 0.011749, -0.013763,-0.021515, -0.022919, -0.256622,-0.052826, 0.166473, -0.012482
754, 7530000.000000,-0.000824, 0.010040, -0.015503,-0.021515, -0.022919, -0.256622,-0.052826, 0.166473, -0.012482
755, 7540000.000000,-0.000824, 0.010040, -0.015503,-0.020599, -0.023468, -0.259827,-0.050201, 0.167023, -0.013885
756, 7550000.000000,0.000336, 0.010010, -0.015747,-0.020599, -0.023468, -0.259827,-0.050201, 0.167023, -0.013885
757, 7560000.000000,0.000336, 0.010010, -0.015747,-0.020599, -0.023468, -0.259827,-0.050201, 0.167023, -0.013885
758, 7570000.000000,-0.000183, 0.010590, -0.015198,-0.020599, -0.023468, -0.259827,-0.050201, 0.167023, -0.013885
759, 7580000.000000,-0.000183, 0.010590, -0.015198,-0.021820, -0.022156, -0.254913,-0.047638, 0.164886, -0.016418
760, 7590000.000000,-0.000183, 0.010590, -0.015076,-0.021820, -0.022156, -0.254913,-0.047638, 0.164886, -0.016418
761, 7600000.000000,-0.000610, 0.011719, -0.015076,-0.021820, -0.022156, -0.254913,-0.047638, 0.164886, -0.016418
762, 7610000.000000,-0.000610, 0.011719, -0.015076,-0.021820, -0.022156, -0.254913,-0.047638, 0.164886, -0.016418
763, 7620000.000000,-0.000153, 0.011719, -0.015167,-0.019348, -0.022278, -0.255157,-0.052643, 0.167450, -0.014221
764, 7630000.000000,-0.000153, 0.011719, -0.015167,-0.019348, -0.022278, -0.255157,-0.052643, 0.167450, -0.014221
765, 7640000.000000,-0.000458, 0.011505, -0.015442,-0.019348, -0.022278, -0.255157,-0.052643, 0.167450, -0.014221
766, 7650000.000000,-0.000458, 0.011505, -0.015442,-0.019348, -0.022278, -0.255157,-0.052643, 0.167450, -0.014221
767, 7660000.000000,0.001709, 0.010010, -0.014313,-0.022339, -0.024170, -0.259277,-0.050659, 0.167480, -0.010132
768, 7670000.000000,0.001709, 0.010010, -0.014313,-0.022339, -0.024170, -0.259277,-0.050659, 0.167480, -0.010132
769, 7680000.000000,0.000641, 0.009705, -0.014343,-0.022339, -0.024170, -0.259277,-0.050659, 0.167480, -0.010132
770, 7690000.000000,0.000641, 0.009705, -0.014343,-0.022339, -0.024170, -0.259277,-0.050659, 0.167480, -0.010132
771, 7700000.000000,-0.001373, 0.008667, -0.014374,-0.019958, -0.024994, -0.256378,-0.047455, 0.167999, -0.013123
772, 7710000.000000,-0.001373, 0.008667, -0.014374,-0.019958, -0.024994, -0.256378,-0.047455, 0.167999, -0.013123
773, 7720000.000000,-0.001373, 0.008667, -0.014374,-0.019958, -0.024994, -0.256378,-0.047455, 0.167999, -0.013123
774, 7730000.000000,-0.001251, 0.006927, -0.014862,-0.019958, -0.024994, -0.256378,-0.047455, 0.167999, -0.013123
775, 7740000.000000,-0.001251, 0.006927, -0.014862,-0.021576, -0.023346, -0.251129,-0.049774, 0.166473, -0.019653
776, 7750000.000000,-0.000549, 0.007202, -0.015442,-0.021576, -0.023346, -0.251129,-0.049774, 0.166473, -0.019653
777, 7760000.000000,-0.000549, 0.007202, -0.015442,-0.021576, -0.023346, -0.251129,-0.049774, 0.166473, -0.019653
778, 7770000.000000,0.000458, 0.006287, -0.015076,-0.021576, -0.023346, -0.251129,-0.049774, 0.166473, -0.019653
779, 7780000.000000,0.000458, 0.006287, -0.015076,-0.019958, -0.022552, -0.255280,-0.049286, 0.164948, -0.010101
780, 7790000.000000,0.001404, 0.006348, -0.014282,-0.019958, -0.022552, -0.255280,-0.049286, 0.164948, -0.010101
781, 7800000.000000,0.001404, 0.006348, -0.014282,-0.019958, -0.022552, -0.255280,-0.049286, 0.164948, -0.010101
782, 7810000.000000,0.001404, 0.006348, -0.013794,-0.019958, -0.022552, -0.255280,-0.049286, 0.164948, -0.010101
783, 7820000.000000,-0.000549, 0.005554, -0.013794,-0.019958, -0.022461, -0.254272,-0.049896, 0.170349, -0.014435
784, 7830000.000000,-0.000549, 0.005554, -0.013794,-0.022980, -0.022461, -0.254272,-0.049896, 0.170349, -0.014435
785, 7840000.000000,-0.000488, 0.004333, -0.015259,-0.022980, -0.022461, -0.254272,-0.049896, 0.170349, -0.014435
786, 7850000.000000,-0.000488, 0.004333, -0.015259,-0.022980, -0.022461, -0.254272,-0.049896, 0.170349, -0.014435
787, 7860000.000000,0.000671, 0.004547, -0.015503,-0.020050, -0.022675, -0.256897,-0.053772, 0.168549, -0.012390
788, 7870000.000000,0.000671, 0.004547, -0.015503,-0.020050, -0.022675, -0.256897,-0.053772, 0.168549, -0.012390
789, 7880000.000000,-0.000214, 0.003479, -0.014923,-0.020050, -0.022675, -0.256897,-0.053772, 0.168549, -0.012390
790, 7890000.000000,-0.000214, 0.003479, -0.014923,-0.020050, -0.022675, -0.256897,-0.053772, 0.168549, -0.012390
791, 7900000.000000,0.000854, 0.001343, -0.015564,-0.023346, -0.022736, -0.260071,-0.052612, 0.168152, -0.022156
792, 7910000.000000,0.000854, 0.001343, -0.015564,-0.023346, -0.022736, -0.260071,-0.052612, 0.168152, -0.022156
793, 7920000.000000,0.002045, 0.000275, -0.015076,-0.023346, -0.022736, -0.260071,-0.052612, 0.168152, -0.022156
794, 7930000.000000,0.002045, 0.000275, -0.015076,-0.023346, -0.022736, -0.260071,-0.052612, 0.168152, -0.022156
795, 7940000.000000,0.001343, 0.000427, -0.015228,-0.024780, -0.021667, -0.252899,-0.047028, 0.167175, -0.016754
796, 7950000.000000,0.001343, 0.000427, -0.015228,-0.024780, -0.021667, -0.252899,-0.047028, 0.167175, -0.016754
797, 7960000.000000,0.001343, 0.000427, -0.023041,-0.024780, -0.021667, -0.252899,-0.047028, 0.167175, -0.016754
798, 7970000.000000,0.001343, 0.003723, -0.017273,-0.024780, -0.021667, -0.252899,-0.047028, 0.167175, -0.016754
799, 7980000.000000,0.001343, 0.003723, -0.017273,-0.024567, -0.021759, -0.249756,-0.050110, 0.166809, -0.019775
800, 7990000.000000,0.002106, 0.007477, -0.017822,-0.024567, -0.021759, -0.249756,-0.050110, 0.166809, -0.019775
801, 8000000.000000,0.002106, 0.007477, -0.017822,-0.024567, -0.021759, -0.249756,-0.050110, 0.166809, -0.019775
802, 8010000.000000,0.005157, 0.009766, -0.018494,-0.024567, -0.021759, -0.249756,-0.050110, 0.166809, -0.019775
803, 8020000.000000,0.005157, 0.009766, -0.018494,-0.024567, -0.021759, -0.257568,-0.049469, 0.167908, -0.023499
804, 8030000.000000,0.005157, 0.009766, -0.021271,-0.030945, -0.024414, -0.251129,-0.049469, 0.167908, -0.023499
805, 8040000.000000,0.007111, 0.008667, -0.021271,-0.030945, -0.024414, -0.251129,-0.049469, 0.167908, -0.023499
806, 8050000.000000,0.007111, 0.024292, -0.030426,-0.030945, -0.024414, -0.251129,-0.049469, 0.167908, -0.023499
807, 8060000.000000,0.006195, 0.028900, -0.030426,-0.032928, -0.018616, -0.243835,-0.056671, 0.164093, -0.016937
808, 8070000.000000,0.004028, 0.043182, -0.041718,-0.032928, -0.018616, -0.243835,-0.056671, 0.164093, -0.016937
809, 8080000.000000,0.004028, 0.043182, -0.041718,-0.032928, -0.018616, -0.243835,-0.056671, 0.164093, -0.016937
810, 8090000.000000,-0.009125, 0.047333, -0.080841,-0.032928, -0.018616, -0.243835,-0.056671, 0.164093, -0.016937
811, 8100000.000000,-0.009125, 0.047333, -0.080841,-0.093689, 0.095398, -0.189362,-0.049408, 0.165802, -0.015228
812, 8110000.000000,-0.009125, 0.047333, -0.158783,-0.093689, 0.095398, -0.189362,-0.049408, 0.165802, -0.015228
813, 8120000.000000,0.029297, 0.109253, -0.158783,-0.093689, 0.095398, -0.189362,-0.049408, 0.165802, -0.015228
814, 8130000.000000,0.029297, 0.109253, -0.158783,-0.093689, 0.095398, -0.189362,-0.049408, 0.165802, -0.015228
815, 8140000.000000,0.065765, 0.276764, -0.183197,-0.052551, -0.021454, -0.283234,-0.050079, 0.163666, -0.014526
816, 8150000.000000,0.065765, 0.276764, -0.183197,-0.052551, -0.021454, -0.283234,-0.050079, 0.163666, -0.014526
817, 8160000.000000,0.052399, 0.315460, -0.204803,-0.052551, -0.021454, -0.283234,-0.050079, 0.163666, -0.014526
818, 8170000.000000,0.052399, 0.315460, -0.204803,-0.052551, -0.021454, -0.283234,-0.050079, 0.163666, -0.014526
819, 8180000.000000,0.093292, 0.358612, -0.255463,-0.068634, -0.021759, -0.246246,-0.055176, 0.159637, -0.009552
820, 8190000.000000,0.093292, 0.358612, -0.255463,-0.068634, -0.021759, -0.246246,-0.055176, 0.159637, -0.009552
821, 8200000.000000,0.093292, 0.358612, -0.294952,-0.068634, -0.021759, -0.246246,-0.055176, 0.159637, -0.009552
822, 8210000.000000,0.115570, 0.404083, -0.294952,-0.068634, -0.021759, -0.246246,-0.055176, 0.159637, -0.009552
823, 8220000.000000,0.115570, 0.404083, -0.294952,-0.157684, 0.030518, -0.328888,-0.060242, 0.155090, 0.002289
824, 8230000.000000,0.181488, 0.458923, -0.353394,-0.157684, 0.030518, -0.328888,-0.060242, 0.155090, 0.002289
825, 8240000.000000,0.181488, 0.458923, -0.353394,-0.157684, 0.030518, -0.328888,-0.060242, 0.155090, 0.002289
826, 8250000.000000,0.268219, 0.438232, -0.369446,-0.157684, 0.030518, -0.328888,-0.060242, 0.155090, 0.002289
827, 8260000.000000,0.268219, 0.438232, -0.369446,-0.185486, -0.173981, -0.574615,-0.064148, 0.148834, 0.007721
828, 8270000.000000,0.166016, 0.353180, -0.318451,-0.185486, -0.173981, -0.574615,-0.064148, 0.148834, 0.007721
829, 8280000.000000,0.166016, 0.353180, -0.318451,-0.185486, -0.173981, -0.574615,-0.064148, 0.148834, 0.007721
830, 8290000.000000,0.021637, 0.155396, -0.244232,-0.185486, -0.173981, -0.574615,-0.064148, 0.148834, 0.007721
831, 8300000.000000,0.021637, 0.155396, -0.244232,-0.273102, -0.107910, -0.351135,-0.062897, 0.143799, 0.009857
832, 8310000.000000,-0.048859, 0.025635, -0.178497,-0.273102, -0.107910, -0.351135,-0.062897, 0.143799, 0.009857
833, 8320000.000000,-0.048859, 0.025635, -0.178497,-0.273102, -0.107910, -0.351135,-0.062897, 0.143799, 0.009857
834, 8330000.000000,-0.048859, -0.021240, -0.148529,-0.273102, -0.107910, -0.351135,-0.062897, 0.143799, 0.009857
835, 8340000.000000,-0.051880, -0.020844, -0.148529,-0.237183, -0.020386, -0.204834,-0.065094, 0.141876, -0.004730
836, 8350000.000000,-0.051880, -0.020844, -0.148529,-0.237183, -0.020386, -0.204834,-0.065094, 0.141876, -0.004730
837, 8360000.000000,-0.021301, -0.045868, -0.141754,-0.237183, -0.020386, -0.204834,-0.065094, 0.141876, -0.004730
838, 8370000.000000,-0.021301, -0.045868, -0.141754,-0.237183, -0.020386, -0.204834,-0.065094, 0.141876, -0.004730
839, 8380000.000000,-0.008148, -0.080872, -0.131866,-0.207611, -0.037933, -0.209564,-0.070465, 0.139923, -0.007812
840, 8390000.000000,-0.008148, -0.080872, -0.131866,-0.207611, -0.037933, -0.209564,-0.070465, 0.139923, -0.007812
841, 8400000.000000,-0.026581, -0.119507, -0.113251,-0.207611, -0.037933, -0.209564,-0.070465, 0.139923, -0.007812
842, 8410000.000000,-0.026581, -0.119507, -0.113251,-0.207611, -0.037933, -0.209564,-0.070465, 0.139923, -0.007812
843, 8420000.000000,-0.026581, -0.119507, -0.091766,-0.176361, -0.033295, -0.208923,-0.069366, 0.139374, -0.006256
844, 8430000.000000,-0.049011, -0.146820, -0.091766,-0.178253, -0.033295, -0.208923,-0.069366, 0.139374, -0.006256
845, 8440000.000000,-0.049011, -0.146820, -0.091766,-0.178253, -0.033295, -0.208923,-0.069366, 0.139374, -0.006256
846, 8450000.000000,-0.056488, -0.169525, -0.069458,-0.178253, -0.033295, -0.208923,-0.069366, 0.139374, -0.006256
847, 8460000.000000,-0.050018, -0.192505, -0.051086,-0.147278, -0.028748, -0.229614,-0.072632, 0.135712, -0.020416
848, 8470000.000000,-0.050018, -0.192505, -0.051086,-0.147278, -0.028748, -0.229614,-0.072632, 0.135712, -0.020416
849, 8480000.000000,-0.050018, -0.192505, -0.027649,-0.147278, -0.028748, -0.229614,-0.072632, 0.135712, -0.020416
850, 8490000.000000,-0.035706, -0.217896, -0.030151,-0.147278, -0.028748, -0.229614,-0.072632, 0.135712, -0.020416
851, 8500000.000000,-0.035706, -0.217896, -0.030151,-0.108704, -0.044678, -0.275940,-0.076447, 0.136749, -0.035675
852, 8510000.000000,-0.031372, -0.256195, -0.007935,-0.108704, -0.044678, -0.275940,-0.076447, 0.136749, -0.035675
853, 8520000.000000,-0.031372, -0.256195, -0.007935,-0.108704, -0.044678, -0.275940,-0.076447, 0.136749, -0.035675
854, 8530000.000000,-0.036224, -0.287720, 0.014404,-0.108704, -0.044678, -0.275940,-0.076447, 0.136749, -0.035675
855, 8540000.000000,-0.036224, -0.287720, 0.014404,-0.078888, -0.035553, -0.224213,-0.077545, 0.136108, -0.036560
856, 8550000.000000,-0.037994, -0.293304, 0.034698,-0.078888, -0.035553, -0.224213,-0.077545, 0.136108, -0.036560
857, 8560000.000000,-0.037994, -0.293304, 0.034698,-0.078888, -0.035553, -0.224213,-0.077545, 0.136108, -0.036560
858, 8570000.000000,-0.038086, -0.279236, 0.052551,-0.078888, -0.035553, -0.224213,-0.077545, 0.136108, -0.036560
859, 8580000.000000,-0.038086, -0.279236, 0.052551,-0.061035, -0.034302, -0.176666,-0.076385, 0.135681, -0.037659
860, 8590000.000000,-0.038086, -0.279236, 0.069672,-0.061035, -0.034302, -0.176666,-0.076385, 0.135681, -0.037659
861, 8600000.000000,-0.034973, -0.245728, 0.069672,-0.061035, -0.034302, -0.176666,-0.076385, 0.135681, -0.037659
862, 8610000.000000,-0.034973, -0.245728, 0.069672,-0.061035, -0.034302, -0.176666,-0.076385, 0.135681, -0.037659
863, 8620000.000000,-0.024445, -0.197937, 0.090179,-0.044434, -0.048523, -0.166351,-0.081573, 0.134155, -0.045624
864, 8630000.000000,-0.024445, -0.197937, 0.090179,-0.044434, -0.048523, -0.166351,-0.081573, 0.134155, -0.045624
865, 8640000.000000,-0.021729, -0.144409, 0.115051,-0.044434, -0.048523, -0.166351,-0.081573, 0.134155, -0.045624
866, 8650000.000000,-0.021729, -0.144409, 0.115051,-0.044434, -0.048523, -0.166351,-0.081573, 0.134155, -0.045624
867, 8660000.000000,-0.021729, -0.095154, 0.141205,-0.025909, -0.050995, -0.246002,-0.088104, 0.137390, -0.057739
868, 8670000.000000,-0.021912, -0.095154, 0.141205,-0.025909, -0.050995, -0.246002,-0.088104, 0.137390, -0.057739
869, 8680000.000000,-0.016205, -0.064575, 0.164612,-0.025909, -0.050995, -0.246002,-0.088104, 0.137390, -0.057739
870, 8690000.000000,-0.016205, -0.064575, 0.164612,-0.025909, -0.050995, -0.246002,-0.088104, 0.137390, -0.057739
871, 8700000.000000,-0.016205, -0.064575, 0.184814,0.015320, -0.053680, -0.423126,-0.083862, 0.142914, -0.059937
872, 8710000.000000,0.000427, -0.068359, 0.184814,0.015320, -0.053680, -0.423126,-0.083862, 0.142914, -0.059937
873, 8720000.000000,0.000427, -0.068359, 0.184814,0.015320, -0.053680, -0.423126,-0.083862, 0.142914, -0.059937
874, 8730000.000000,0.016022, -0.128632, 0.205811,0.015320, -0.053680, -0.423126,-0.083862, 0.142914, -0.059937
875, 8740000.000000,0.016022, -0.128632, 0.205811,0.050751, -0.049316, -0.504272,-0.090240, 0.143677, -0.067291
876, 8750000.000000,0.031372, -0.217133, 0.216919,0.050751, -0.049316, -0.504272,-0.090240, 0.143677, -0.067291
877, 8760000.000000,0.031372, -0.217133, 0.216919,0.050751, -0.049316, -0.504272,-0.090240, 0.143677, -0.067291
878, 8770000.000000,0.061371, -0.317017, 0.216095,0.050751, -0.049316, -0.504272,-0.090240, 0.143677, -0.067291
879, 8780000.000000,0.061371, -0.317017, 0.216095,0.085388, -0.034821, -0.451294,-0.088745, 0.148163, -0.081085
880, 8790000.000000,0.061371, -0.408600, 0.202850,0.085388, -0.034821, -0.451294,-0.088745, 0.148163, -0.081085
881, 8800000.000000,0.088776, -0.408600, 0.202850,0.085388, -0.034821, -0.451294,-0.088745, 0.148163, -0.081085
882, 8810000.000000,0.088776, -0.408600, 0.202850,0.085388, -0.034821, -0.451294,-0.088745, 0.148163, -0.081085
883, 8820000.000000,0.094635, -0.465057, 0.179657,0.085388, -0.011383, -0.311554,-0.073303, 0.151459, -0.098541
884, 8830000.000000,0.094635, -0.465057, 0.179657,0.112579, -0.010345, -0.311554,-0.073303, 0.151459, -0.098541
885, 8840000.000000,0.089661, -0.475281, 0.147797,0.112579, -0.010345, -0.311554,-0.073303, 0.151459, -0.098541
886, 8850000.000000,0.089661, -0.475281, 0.147797,0.112579, -0.010345, -0.311554,-0.073303, 0.151459, -0.098541
887, 8860000.000000,0.089661, -0.475281, 0.147797,0.112579, -0.010345, -0.311554,-0.073303, 0.151459, -0.098541
888, 8870000.000000,0.098419, -0.334656, 0.098907,0.185944, 0.025177, -0.111877,-0.067657, 0.151917, -0.106537
889, 8880000.000000,0.098419, -0.334656, 0.098907,0.185944, 0.025177, -0.111877,-0.067657, 0.151917, -0.106537
890, 8890000.000000,0.096985, -0.211121, 0.043640,0.185944, 0.025177, -0.111877,-0.067657, 0.151917, -0.106537
891, 8900000.000000,0.096985, -0.127869, -0.003265,0.303131, -0.002991, -0.122955,-0.066803, 0.153900, -0.103729
892, 8910000.000000,0.067261, -0.127869, -0.003265,0.302094, -0.002991, -0.122955,-0.066803, 0.153900, -0.103729
893, 8920000.000000,0.067261, -0.057861, -0.031708,0.302094, -0.002991, -0.122955,-0.066803, 0.153900, -0.103729
894, 8930000.000000,0.067505, -0.057861, -0.031708,0.302094, -0.002991, -0.122955,-0.066803, 0.153900, -0.103729
895, 8940000.000000,0.067505, -0.057861, -0.031708,0.378876, -0.050690, -0.119629,-0.066437, 0.150330, -0.100647
896, 8950000.000000,0.061554, 0.012543, -0.041260,0.378876, -0.050690, -0.119629,-0.066437, 0.150330, -0.100647
897, 8960000.000000,0.061554, 0.012543, -0.041260,0.378876, -0.050690, -0.119629,-0.066437, 0.150330, -0.100647
898, 8970000.000000,0.023315, 0.092163, -0.040497,0.378876, -0.050690, -0.119629,-0.066437, 0.150330, -0.100647
899, 8980000.000000,0.023315, 0.092163, -0.040497,0.466949, -0.019714, 0.134125,-0.071198, 0.148132, -0.089722
900, 8990000.000000,-0.014648, 0.228790, -0.050140,0.466949, -0.019714, 0.134125,-0.071198, 0.148132, -0.089722
901, 9000000.000000,-0.014648, 0.228790, -0.050140,0.466949, -0.019714, 0.134125,-0.071198, 0.148132, -0.089722
902, 9010000.000000,-0.030426, 0.363983, -0.081238,0.466949, -0.019714, 0.134125,-0.071198, 0.148132, -0.089722
903, 9020000.000000,-0.030426, 0.363983, -0.081238,-0.103363, -0.140869, -0.178467,-0.069672, 0.152466, -0.099762
904, 9030000.000000,-0.030426, 0.410858, -0.100281,-0.105499, -0.140869, -0.178467,-0.069672, 0.152466, -0.099762
905, 9040000.000000,-0.084351, 0.409973, -0.100281,-0.105499, -0.140869, -0.178467,-0.069672, 0.152466, -0.099762
906, 9050000.000000,-0.084351, 0.409973, -0.100281,-0.105499, -0.140869, -0.178467,-0.069672, 0.152466, -0.099762
907, 9060000.000000,-0.098450, 0.513489, -0.043365,-0.105499, -0.140869, -0.448151,-0.076996, 0.152802, -0.095825
908, 9070000.000000,-0.098450, 0.513489, -0.043365,0.063965, -0.087280, -0.448151,-0.076996, 0.152802, -0.095825
909, 9080000.000000,-0.037201, 0.448975, 0.008453,0.063965, -0.087280, -0.448151,-0.076996, 0.152802, -0.095825
910, 9090000.000000,-0.037201, 0.448975, 0.008453,0.063965, -0.087280, -0.448151,-0.076996, 0.152802, -0.095825
911, 9100000.000000,-0.036469, 0.381805, 0.013123,0.029205, 0.071411, -0.324066,-0.074097, 0.152679, -0.083130
912, 9110000.000000,-0.036469, 0.381805, 0.013123,0.029205, 0.071411, -0.324066,-0.074097, 0.152679, -0.083130
913, 9120000.000000,-0.090485, 0.445984, -0.002777,0.029205, 0.071411, -0.324066,-0.074097, 0.152679, -0.083130
914, 9130000.000000,-0.090485, 0.445984, -0.002777,0.029205, 0.071411, -0.324066,-0.074097, 0.155060, -0.094299
915, 9140000.000000,-0.194763, 0.148865, 0.060272,0.039062, 0.230591, -0.206299,-0.075531, 0.155060, -0.094299
916, 9150000.000000,-0.194763, 0.148865, 0.060272,0.039062, 0.230591, -0.206299,-0.075531, 0.155060, -0.094299
917, 9160000.000000,-0.041626, 0.008423, -0.029785,0.039062, 0.230591, -0.206299,-0.075531, 0.155060, -0.094299
918, 9170000.000000,-0.041626, 0.008423, -0.029785,0.039062, 0.230591, -0.206299,-0.075531, 0.155060, -0.092712
919, 9180000.000000,-0.087280, 0.030273, -0.013092,-0.006805, 0.024353, -0.295624,-0.073181, 0.154480, -0.092712
920, 9190000.000000,-0.087280, 0.030273, -0.013092,-0.006805, 0.024353, -0.295624,-0.073181, 0.154480, -0.092712
921, 9200000.000000,-0.029694, 0.009552, 0.000092,-0.006805, 0.024353, -0.295624,-0.073181, 0.154480, -0.092712
922, 9210000.000000,-0.029694, 0.009552, 0.000092,-0.006805, 0.024353, -0.295624,-0.073181, 0.154480, -0.092712
923, 9220000.000000,-0.029694, 0.009552, -0.005981,-0.028961, -0.057190, -0.216766,-0.073517, 0.156464, -0.091644
924, 9230000.000000,-0.006622, 0.005493, -0.005981,-0.028961, -0.057190, -0.216766,-0.073517, 0.156464, -0.091644
925, 9240000.000000,-0.006622, 0.005493, -0.005981,-0.028961, -0.057190, -0.216766,-0.073517, 0.156464, -0.091644
926, 9250000.000000,-0.028046, 0.015228, -0.007782,-0.028961, -0.057190, -0.216766,-0.073517, 0.156464, -0.091644
927, 9260000.000000,-0.028046, 0.015228, -0.007782,-0.035980, -0.000793, -0.244781,-0.078186, 0.154816, -0.088226
928, 9270000.000000,-0.022430, 0.027527, -0.003021,-0.035980, -0.000793, -0.244781,-0.078186, 0.154816, -0.088226
929, 9280000.000000,-0.022430, 0.027527, -0.003021,-0.035980, -0.000793, -0.244781,-0.078186, 0.154816, -0.088226
930, 9290000.000000,-0.028687, 0.038574, -0.000458,-0.035980, -0.000793, -0.244781,-0.078186, 0.154816, -0.088226
931, 9300000.000000,-0.028687, 0.038574, -0.000458,-0.031158, -0.022827, -0.244690,-0.076508, 0.152832, -0.090302
932, 9310000.000000,-0.040253, 0.051361, -0.001160,-0.031158, -0.022827, -0.244690,-0.076508, 0.152832, -0.090302
933, 9320000.000000,-0.040253, 0.051361, -0.001160,-0.031158, -0.022827, -0.244690,-0.076508, 0.152832, -0.090302
934, 9330000.000000,-0.045349, 0.070740, -0.004761,-0.028198, -0.031403, -0.233276,-0.076843, 0.152191, -0.090668
935, 9340000.000000,-0.045349, 0.070740, -0.004761,-0.028198, -0.031403, -0.233276,-0.076843, 0.152191, -0.090668
936, 9350000.000000,-0.055084, 0.087799, -0.008301,-0.028198, -0.031403, -0.233276,-0.076843, 0.152191, -0.090668
937, 9360000.000000,-0.055084, 0.087799, -0.008301,-0.028198, -0.031403, -0.233276,-0.076843, 0.152191, -0.090668
938, 9370000.000000,-0.039459, 0.102905, -0.012604,-0.012573, -0.007019, -0.278473,-0.075073, 0.154633, -0.083191
939, 9380000.000000,-0.045593, 0.102905, -0.012604,-0.010773, -0.007019, -0.278473,-0.075073, 0.154633, -0.083191
940, 9390000.000000,-0.045593, 0.102905, -0.012604,-0.010773, -0.007019, -0.278473,-0.075073, 0.154633, -0.083191
941, 9400000.000000,-0.018646, 0.086334, -0.016266,-0.010773, -0.007019, -0.278473,-0.075073, 0.154633, -0.083191
942, 9410000.000000,-0.018646, 0.086334, -0.016266,-0.010773, -0.007019, -0.270660,-0.076111, 0.154694, -0.088531
943, 9420000.000000,-0.010345, 0.057617, -0.014618,-0.015778, -0.024475, -0.266876,-0.076111, 0.154694, -0.088531
944, 9430000.000000,-0.010345, 0.057617, -0.014618,-0.015778, -0.024475, -0.266876,-0.076111, 0.154694, -0.088531
945, 9440000.000000,-0.008301, 0.055603, -0.015411,-0.015778, -0.024475, -0.266876,-0.076111, 0.154694, -0.088531
946, 9450000.000000,-0.008301, 0.055603, -0.015411,-0.015778, -0.024475, -0.266876,-0.076111, 0.154694, -0.086914
947, 9460000.000000,-0.008301, 0.047119, -0.013794,-0.013214, -0.018127, -0.262054,-0.078491, 0.152313, -0.086914
948, 9470000.000000,-0.004730, 0.047119, -0.013794,-0.013214, -0.018127, -0.262054,-0.078491, 0.152313, -0.086914
949, 9480000.000000,-0.004730, 0.048798, -0.014160,-0.013214, -0.018127, -0.262054,-0.078491, 0.152313, -0.086914
950, 9490000.000000,-0.001068, 0.048798, -0.014160,-0.013214, -0.018127, -0.260620,-0.076508, 0.156067, -0.087769
951, 9500000.000000,-0.001068, 0.048798, -0.014160,-0.013580, -0.030273, -0.260620,-0.076508, 0.156067, -0.087769
952, 9510000.000000,-0.003113, 0.059814, -0.014862,-0.013580, -0.030273, -0.260620,-0.076508, 0.156067, -0.087769
953, 9520000.000000,-0.003113, 0.059814, -0.014862,-0.013580, -0.030273, -0.260620,-0.076508, 0.156067, -0.087769
954, 9530000.000000,-0.011261, 0.058472, -0.014862,-0.013580, -0.028503, -0.268402,-0.075287, 0.153320, -0.082275
955, 9540000.000000,-0.011261, 0.058472, -0.014862,-0.009766, -0.028503, -0.268402,-0.075287, 0.153320, -0.082275
956, 9550000.000000,-0.018707, 0.058655, -0.017365,-0.009766, -0.028503, -0.268402,-0.075287, 0.153320, -0.082275
957, 9560000.000000,-0.018707, 0.058655, -0.017365,-0.009766, -0.028503, -0.268402,-0.075287, 0.153320, -0.082275
958, 9570000.000000,-0.023315, 0.052795, -0.018188,-0.009766, -0.028503, -0.259460,-0.079346, 0.153198, -0.088226
959, 9580000.000000,-0.023315, 0.052795, -0.018188,-0.007690, -0.019470, -0.259460,-0.079346, 0.153198, -0.088226
960, 9590000.000000,-0.023315, 0.046417, -0.017548,-0.007690, -0.019470, -0.259460,-0.079346, 0.153198, -0.088226
961, 9600000.000000,-0.021698, 0.046417, -0.017548,-0.007690, -0.019470, -0.259460,-0.079346, 0.153198, -0.088226
962, 9610000.000000,-0.021698, 0.046417, -0.017548,-0.007690, -0.019470, -0.259460,-0.079346, 0.153198, -0.088226
963, 9620000.000000,-0.017853, 0.038177, -0.015869,-0.007477, -0.018433, -0.256622,-0.078644, 0.155731, -0.086792
964, 9630000.000000,-0.017853, 0.038177, -0.015869,-0.007477, -0.018433, -0.256622,-0.078644, 0.155731, -0.086792
965, 9640000.000000,-0.016052, 0.029785, -0.014557,-0.007477, -0.018433, -0.256622,-0.078644, 0.155731, -0.086792
966, 9650000.000000,-0.016052, 0.029785, -0.014557,-0.007477, -0.018433, -0.256622,-0.078644, 0.155731, -0.086792
967, 9660000.000000,-0.012878, 0.027069, -0.013367,-0.009460, -0.019806, -0.259857,-0.076324, 0.154327, -0.087646
968, 9670000.000000,-0.012878, 0.027069, -0.013367,-0.009460, -0.019806, -0.259857,-0.076324, 0.154327, -0.087646
969, 9680000.000000,-0.012878, 0.025543, -0.012543,-0.009460, -0.019806, -0.259857,-0.076324, 0.154327, -0.087646
970, 9690000.000000,-0.013000, 0.025543, -0.012543,-0.009460, -0.019806, -0.259857,-0.076324, 0.154327, -0.087646
971, 9700000.000000,-0.013000, 0.032562, -0.014435,-0.012299, -0.017944, -0.254578,-0.079834, 0.152496, -0.088013
972, 9710000.000000,-0.009460, 0.032562, -0.014435,-0.012299, -0.017944, -0.254578,-0.079834, 0.152496, -0.088013
973, 9720000.000000,-0.006775, 0.036530, -0.016205,-0.012299, -0.017944, -0.254578,-0.079834, 0.152496, -0.088013
974, 9730000.000000,-0.006775, 0.036530, -0.016205,-0.006409, -0.016571, -0.257874,-0.076202, 0.152527, -0.088440
975, 9740000.000000,-0.003967, 0.033142, -0.015503,-0.006409, -0.016571, -0.257874,-0.076202, 0.152527, -0.088440
976, 9750000.000000,-0.003967, 0.033142, -0.015503,-0.006409, -0.016571, -0.257874,-0.076202, 0.152527, -0.088440
977, 9760000.000000,-0.003967, 0.025330, -0.014465,-0.006409, -0.016571, -0.257874,-0.076202, 0.152527, -0.088440
978, 9770000.000000,-0.002045, 0.027191, -0.014465,-0.008209, -0.018219, -0.253571,-0.080048, 0.151154, -0.078125
979, 9780000.000000,-0.002045, 0.027191, -0.014465,-0.008209, -0.018219, -0.253571,-0.080048, 0.151154, -0.078125
980, 9790000.000000,-0.000549, 0.025452, -0.015381,-0.008209, -0.018219, -0.253571,-0.080048, 0.151154, -0.078125
981, 9800000.000000,-0.000549, 0.025452, -0.015381,-0.008209, -0.018219, -0.253571,-0.080048, 0.151154, -0.078125
982, 9810000.000000,0.000488, 0.022034, -0.014069,-0.008209, -0.020233, -0.260071,-0.085938, 0.153961, -0.082520
983, 9820000.000000,0.000488, 0.022034, -0.014069,-0.011444, -0.020233, -0.260071,-0.085938, 0.153961, -0.082520
984, 9830000.000000,0.001190, 0.021118, -0.015015,-0.011444, -0.020233, -0.260071,-0.085938, 0.153961, -0.082520
985, 9840000.000000,0.001190, 0.021118, -0.015015,-0.011444, -0.020233, -0.260071,-0.085938, 0.153961, -0.082520
986, 9850000.000000,0.001190, 0.021118, -0.015015,-0.011444, -0.020233, -0.260071,-0.085938, 0.153961, -0.082794
987, 9860000.000000,0.000427, 0.015045, -0.014252,-0.005463, -0.022827, -0.258881,-0.080322, 0.155823, -0.082794
988, 9870000.000000,0.000427, 0.015045, -0.014252,-0.005463, -0.022827, -0.258881,-0.080322, 0.155823, -0.082794
989, 9880000.000000,-0.000153, 0.009094, -0.013611,-0.005463, -0.022827, -0.258881,-0.080322, 0.155823, -0.082794
990, 9890000.000000,-0.000153, 0.001282, -0.014008,-0.005463, -0.019806, -0.249481,-0.077423, 0.153687, -0.085693
991, 9900000.000000,-0.000336, 0.005981, -0.014008,-0.009857, -0.019806, -0.249481,-0.077423, 0.153687, -0.085693
992, 9910000.000000,-0.000702, 0.007294, -0.014313,-0.009857, -0.019806, -0.249481,-0.077423, 0.153687, -0.085693
993, 9920000.000000,-0.000702, 0.007294, -0.014313,-0.009857, -0.019806, -0.253357,-0.077515, 0.154236, -0.082703
994, 9930000.000000,0.000397, 0.007568, -0.015198,-0.016296, -0.017426, -0.253357,-0.077515, 0.154236, -0.082703
995, 9940000.000000,0.000397, 0.007568, -0.015198,-0.016296, -0.017426, -0.253357,-0.077515, 0.154236, -0.082703
996, 9950000.000000,0.000397, 0.023193, -0.016846,-0.016296, -0.017426, -0.253357,-0.077515, 0.154236, -0.082703
997, 9960000.000000,0.000610, 0.016907, -0.016846,-0.016296, -0.017426, -0.253357,-0.077515, 0.154236, -0.094208
998, 9970000.000000,0.000610, 0.016907, -0.016846,-0.014618, -0.017365, -0.255768,-0.076874, 0.153168, -0.094208
999, 9980000.000000,0.001831, 0.022308, -0.017181,-0.014618, -0.017365, -0.255768,-0.076874, 0.153168, -0.094208
1000, 9990000.000000,0.001831, 0.022308, -0.017181,-0.014618, -0.017365, -0.255768,-0.076874, 0.153168, -0.094208
1001, 10000000.000000,0.004944, 0.025055, -0.017883,-0.014618, -0.017365, -0.255768,-0.076874, 0.153168, -0.094208
1002, 10010000.000000,0.004944, 0.025055, -0.017883,-0.011536, -0.017822, -0.250244,-0.077515, 0.153687, -0.087128
1003, 10020000.000000,0.004944, 0.027893, -0.020325,-0.011536, -0.017822, -0.250244,-0.077515, 0.153687, -0.087128
1004, 10030000.000000,0.007599, 0.027893, -0.020325,-0.011536, -0.017822, -0.250244,-0.077515, 0.153687, -0.087128
1005, 10040000.000000,0.007599, 0.027893, -0.020325,-0.011536, -0.017822, -0.250244,-0.077515, 0.153687, -0.087128
1006, 10050000.000000,0.012817, 0.035950, -0.021912,-0.011536, -0.018768, -0.248901,-0.079315, 0.155304, -0.083313
1007, 10060000.000000,0.012817, 0.035950, -0.021912,-0.009918, -0.018768, -0.248901,-0.079315, 0.155304, -0.083313
1008, 10070000.000000,0.017944, 0.039886, -0.023041,-0.009918, -0.018768, -0.248901,-0.079315, 0.155304, -0.083313
1009, 10080000.000000,0.017944, 0.039886, -0.023041,-0.009918, -0.018768, -0.248901,-0.079315, 0.155304, -0.083313
1010, 10090000.000000,0.027405, 0.042572, -0.025330,-0.009918, -0.012665, -0.251434,-0.078796, 0.153107, -0.085815
1011, 10100000.000000,0.027405, 0.042572, -0.025330,-0.012512, -0.012665, -0.251434,-0.078796, 0.153107, -0.085815
1012, 10110000.000000,0.038330, 0.045105, -0.026093,-0.012512, -0.012665, -0.251434,-0.078796, 0.153107, -0.085815
1013, 10120000.000000,0.038330, 0.045105, -0.026093,-0.012512, -0.012665, -0.251434,-0.078796, 0.153107, -0.085815
1014, 10130000.000000,0.038330, 0.045105, -0.026093,-0.004700, -0.020081, -0.247406,-0.080292, 0.153625, -0.081482
1015, 10140000.000000,0.046387, 0.040833, -0.028198,-0.000397, -0.020081, -0.247406,-0.080292, 0.153625, -0.081482
1016, 10150000.000000,0.046387, 0.040833, -0.028198,-0.000397, -0.020081, -0.247406,-0.080292, 0.153625, -0.081482
1017, 10160000.000000,0.053009, 0.025818, -0.030121,-0.000397, -0.020081, -0.247406,-0.080292, 0.153625, -0.081482
1018, 10170000.000000,0.053009, 0.025818, -0.030121,-0.006195, -0.021545, -0.250946,-0.079285, 0.152710, -0.085388
1019, 10180000.000000,0.060455, 0.006561, -0.034821,-0.006195, -0.021545, -0.250946,-0.079285, 0.152710, -0.085388
1020, 10190000.000000,0.060455, 0.006561, -0.034821,-0.006195, -0.021545, -0.250946,-0.079285, 0.152710, -0.085388
1021, 10200000.000000,0.074432, 0.009827, -0.046295,-0.006195, -0.021545, -0.250946,-0.079285, 0.152710, -0.085388
1022, 10210000.000000,0.074432, 0.009827, -0.046295,-0.006622, -0.032013, -0.254822,-0.081177, 0.148163, -0.083588
1023, 10220000.000000,0.067535, 0.013794, -0.031616,-0.006622, -0.032013, -0.254822,-0.081177, 0.148163, -0.083588
1024, 10230000.000000,0.067535, 0.013794, -0.031616,-0.006622, -0.032013, -0.254822,-0.081177, 0.148163, -0.083588
1025, 10240000.000000,0.067535, 0.021606, -0.027008,-0.006622, -0.032013, -0.254822,-0.081177, 0.148163, -0.083588
1026, 10250000.000000,0.051239, 0.022156, -0.027008,-0.006622, -0.028992, -0.256653,-0.079773, 0.154114, -0.078369
1027, 10260000.000000,0.051239, 0.022156, -0.027008,-0.007294, -0.028992, -0.256653,-0.079773, 0.154114, -0.078369
1028, 10270000.000000,0.048981, 0.037872, -0.016174,-0.007294, -0.028992, -0.256653,-0.079773, 0.154114, -0.078369
1029, 10280000.000000,0.048981, 0.037872, -0.016174,-0.007294, -0.028992, -0.256653,-0.079773, 0.154114, -0.078369
1030, 10290000.000000,0.035187, 0.040253, -0.015045,-0.007294, -0.028992, -0.259430,-0.078186, 0.156128, -0.081085
1031, 10300000.000000,0.035187, 0.040253, -0.015045,-0.003082, -0.033234, -0.259430,-0.078186, 0.156128, -0.081085
1032, 10310000.000000,0.024017, 0.037628, -0.017975,-0.003082, -0.033234, -0.259430,-0.078186, 0.156128, -0.081085
1033, 10320000.000000,0.008179, 0.030487, -0.023132,-0.002319, -0.029053, -0.248871,-0.081390, 0.152893, -0.082703
1034, 10330000.000000,0.013214, 0.032837, -0.024445,-0.002319, -0.029053, -0.248871,-0.081390, 0.152893, -0.082703
1035, 10340000.000000,0.013214, 0.032837, -0.024445,-0.002319, -0.029053, -0.248871,-0.081390, 0.152893, -0.082703
1036, 10350000.000000,0.015503, 0.034973, -0.026764,-0.002319, -0.029053, -0.248871,-0.081390, 0.152893, -0.082703
1037, 10360000.000000,0.015503, 0.034973, -0.026764,-0.003754, -0.029480, -0.252319,-0.080994, 0.153534, -0.080597
1038, 10370000.000000,0.015503, 0.033813, -0.029175,-0.003754, -0.029480, -0.252319,-0.080994, 0.153534, -0.080597
1039, 10380000.000000,0.012787, 0.033813, -0.029175,-0.003754, -0.029480, -0.252319,-0.080994, 0.153534, -0.080597
1040, 10390000.000000,0.013428, 0.034851, -0.029541,-0.003754, -0.027893, -0.257782,-0.079071, 0.154358, -0.085785
1041, 10400000.000000,0.013428, 0.034851, -0.029541,-0.002228, -0.027893, -0.257782,-0.079071, 0.154358, -0.085785
1042, 10410000.000000,0.017792, 0.033936, -0.028748,-0.002228, -0.027893, -0.257782,-0.079071, 0.154358, -0.085785
1043, 10420000.000000,0.017792, 0.033936, -0.028748,-0.002228, -0.027893, -0.257782,-0.079071, 0.154358, -0.085785
1044, 10430000.000000,0.017670, 0.037048, -0.029541,-0.002228, -0.031586, -0.254272,-0.081818, 0.156219, -0.079620
1045, 10440000.000000,0.017670, 0.037048, -0.029541,-0.002045, -0.031586, -0.254272,-0.081818, 0.156219, -0.079620
1046, 10450000.000000,0.017670, 0.044861, -0.029205,-0.002045, -0.031586, -0.254272,-0.081818, 0.156219, -0.079620
1047, 10460000.000000,0.014282, 0.040985, -0.029205,-0.002045, -0.031586, -0.254272,-0.081818, 0.156219, -0.079620
1048, 10470000.000000,0.014282, 0.040985, -0.029205,-0.002045, -0.031586, -0.253235,-0.080078, 0.152222, -0.080566
1049, 10480000.000000,0.015137, 0.052032, -0.027954,-0.005432, -0.033020, -0.253235,-0.080078, 0.152222, -0.080566
1050, 10490000.000000,0.015137, 0.052032, -0.027954,-0.005432, -0.033020, -0.253235,-0.080078, 0.152222, -0.080566
1051, 10500000.000000,0.016876, 0.070374, -0.028687,-0.005432, -0.033020, -0.253235,-0.080078, 0.152222, -0.080566
1052, 10510000.000000,0.016876, 0.070374, -0.028687,-0.005432, -0.033020, -0.253235,-0.080078, 0.152222, -0.080200
1053, 10520000.000000,0.013947, 0.089447, -0.029907,-0.003693, -0.034546, -0.256378,-0.078033, 0.152222, -0.080200
1054, 10530000.000000,0.013947, 0.089447, -0.029907,-0.003693, -0.034546, -0.256378,-0.078033, 0.152222, -0.080200
1055, 10540000.000000,0.013947, 0.112885, -0.025299,-0.003693, -0.034546, -0.256378,-0.078033, 0.152222, -0.080200
1056, 10550000.000000,0.006134, 0.110809, -0.025299,-0.003693, -0.034546, -0.256378,-0.078033, 0.152222, -0.080200
